t_ms,Flex1,Flex2,Flex3,Flex4,Flex5,AccelX,AccelY,AccelZ,GyroX,GyroY,GyroZ,Pitch,Roll,Sign
491647,2790,1784,2463,2556,2323,0,0,0,0,0,0,0,0,A
491657,2793,1773,2472,2569,2321,0,0,0,0,0,0,0,0,A
491692,2805,1766,2473,2567,2324,0,0,0,0,0,0,0,0,A
491702,2794,1770,2477,2563,2327,0,0,0,0,0,0,0,0,A
491737,2799,1778,2478,2562,2329,0,0,0,0,0,0,0,0,A
491747,2798,1776,2472,2572,2335,0,0,0,0,0,0,0,0,A
491782,2792,1776,2471,2551,2321,0,0,0,0,0,0,0,0,A
491792,2790,1776,2468,2565,2331,0,0,0,0,0,0,0,0,A
491827,2798,1779,2477,2559,2326,0,0,0,0,0,0,0,0,A
491837,2793,1773,2455,2564,2313,0,0,0,0,0,0,0,0,A
491872,2794,1783,2465,2566,2302,0,0,0,0,0,0,0,0,A
491882,2791,1771,2466,2566,2328,0,0,0,0,0,0,0,0,A
491917,2789,1761,2468,2563,2320,0,0,0,0,0,0,0,0,A
491927,2786,1772,2480,2570,2332,0,0,0,0,0,0,0,0,A
491962,2785,1750,2471,2568,2327,0,0,0,0,0,0,0,0,A
491972,2792,1776,2473,2571,2306,0,0,0,0,0,0,0,0,A
492007,2789,1767,2484,2564,2331,0,0,0,0,0,0,0,0,A
492017,2785,1779,2465,2560,2320,0,0,0,0,0,0,0,0,A
492052,2798,1776,2477,2567,2336,0,0,0,0,0,0,0,0,A
492062,2798,1777,2469,2557,2332,0,0,0,0,0,0,0,0,A
492097,2796,1772,2466,2568,2327,0,0,0,0,0,0,0,0,A
492107,2797,1773,2478,2567,2327,0,0,0,0,0,0,0,0,A
492142,2794,1774,2469,2568,2328,0,0,0,0,0,0,0,0,A
492152,2794,1770,2470,2563,2328,0,0,0,0,0,0,0,0,A
492187,2783,1765,2480,2563,2333,0,0,0,0,0,0,0,0,A
492197,2792,1780,2467,2560,2331,0,0,0,0,0,0,0,0,A
492232,2799,1773,2469,2564,2328,0,0,0,0,0,0,0,0,A
492242,2793,1780,2472,2560,2322,0,0,0,0,0,0,0,0,A
492277,2784,1771,2479,2560,2335,0,0,0,0,0,0,0,0,A
492287,2782,1787,2476,2564,2322,0,0,0,0,0,0,0,0,A
492322,2793,1768,2471,2571,2324,0,0,0,0,0,0,0,0,A
492332,2799,1772,2471,2569,2337,0,0,0,0,0,0,0,0,A
492367,2793,1771,2484,2557,2312,0,0,0,0,0,0,0,0,A
492377,2788,1771,2471,2557,2327,0,0,0,0,0,0,0,0,A
492412,2792,1767,2470,2556,2345,0,0,0,0,0,0,0,0,A
492422,2790,1764,2482,2562,2326,0,0,0,0,0,0,0,0,A
492457,2799,1767,2481,2549,2336,0,0,0,0,0,0,0,0,A
492467,2790,1769,2465,2565,2345,0,0,0,0,0,0,0,0,A
492502,2779,1774,2478,2561,2320,0,0,0,0,0,0,0,0,A
492512,2793,1756,2471,2577,2331,0,0,0,0,0,0,0,0,A
492547,2795,1770,2480,2554,2324,0,0,0,0,0,0,0,0,A
492557,2791,1768,2476,2567,2327,0,0,0,0,0,0,0,0,A
492592,2788,1760,2472,2564,2326,0,0,0,0,0,0,0,0,A
492602,2787,1762,2463,2568,2322,0,0,0,0,0,0,0,0,A
492637,2790,1755,2471,2573,2342,0,0,0,0,0,0,0,0,A
492647,2793,1769,2472,2563,2322,0,0,0,0,0,0,0,0,A
492682,2795,1764,2473,2565,2336,0,0,0,0,0,0,0,0,A
492692,2783,1769,2485,2568,2327,0,0,0,0,0,0,0,0,A
492727,2792,1768,2475,2561,2327,0,0,0,0,0,0,0,0,A
492737,2787,1766,2481,2558,2333,0,0,0,0,0,0,0,0,A
492772,2790,1762,2467,2570,2317,0,0,0,0,0,0,0,0,A
492782,2792,1776,2478,2562,2322,0,0,0,0,0,0,0,0,A
492817,2784,1776,2472,2558,2327,0,0,0,0,0,0,0,0,A
492827,2794,1774,2472,2572,2331,0,0,0,0,0,0,0,0,A
492862,2787,1767,2477,2570,2317,0,0,0,0,0,0,0,0,A
492908,2795,1769,2476,2561,2320,0,0,0,0,0,0,0,0,A
492918,2800,1769,2468,2570,2340,0,0,0,0,0,0,0,0,A
492952,2786,1765,2472,2576,2318,0,0,0,0,0,0,0,0,A
492962,2789,1765,2467,2559,2338,0,0,0,0,0,0,0,0,A
492997,2795,1772,2471,2570,2327,0,0,0,0,0,0,0,0,A
493007,2791,1759,2477,2563,2328,0,0,0,0,0,0,0,0,A
493042,2789,1771,2474,2570,2322,0,0,0,0,0,0,0,0,A
493052,2797,1770,2479,2569,2330,0,0,0,0,0,0,0,0,A
493087,2794,1759,2467,2567,2330,0,0,0,0,0,0,0,0,A
493097,2791,1771,2480,2567,2313,0,0,0,0,0,0,0,0,A
493132,2791,1777,2472,2572,2325,0,0,0,0,0,0,0,0,A
493142,2796,1778,2481,2564,2326,0,0,0,0,0,0,0,0,A
493177,2789,1784,2470,2551,2319,0,0,0,0,0,0,0,0,A
493187,2788,1770,2478,2563,2312,0,0,0,0,0,0,0,0,A
493222,2791,1772,2479,2564,2324,0,0,0,0,0,0,0,0,A
493233,2800,1770,2469,2568,2338,0,0,0,0,0,0,0,0,A
493267,2788,1755,2483,2574,2329,0,0,0,0,0,0,0,0,A
493277,2794,1768,2476,2568,2319,0,0,0,0,0,0,0,0,A
493312,2793,1772,2474,2573,2329,0,0,0,0,0,0,0,0,A
493322,2788,1778,2468,2565,2344,0,0,0,0,0,0,0,0,A
493357,2795,1771,2468,2568,2333,0,0,0,0,0,0,0,0,A
493367,2786,1767,2478,2555,2336,0,0,0,0,0,0,0,0,A
493402,2790,1774,2481,2553,2324,0,0,0,0,0,0,0,0,A
493412,2783,1777,2472,2546,2357,0,0,0,0,0,0,0,0,A
493447,2797,1764,2473,2560,2317,0,0,0,0,0,0,0,0,A
493457,2786,1790,2479,2560,2319,0,0,0,0,0,0,0,0,A
493492,2785,1759,2471,2562,2325,0,0,0,0,0,0,0,0,A
493502,2790,1778,2472,2563,2344,0,0,0,0,0,0,0,0,A
493537,2787,1777,2484,2567,2331,0,0,0,0,0,0,0,0,A
493547,2793,1771,2464,2561,2331,0,0,0,0,0,0,0,0,A
493582,2790,1764,2480,2563,2354,0,0,0,0,0,0,0,0,A
493592,2799,1768,2476,2561,2327,0,0,0,0,0,0,0,0,A
493627,2789,1767,2479,2559,2320,0,0,0,0,0,0,0,0,A
493637,2791,1771,2464,2565,2342,0,0,0,0,0,0,0,0,A
493672,2783,1770,2481,2560,2316,0,0,0,0,0,0,0,0,A
493682,2792,1772,2471,2566,2334,0,0,0,0,0,0,0,0,A
493717,2792,1757,2472,2563,2322,0,0,0,0,0,0,0,0,A
493727,2786,1768,2460,2561,2339,0,0,0,0,0,0,0,0,A
493762,2791,1778,2469,2561,2315,0,0,0,0,0,0,0,0,A
493772,2794,1756,2471,2562,2325,0,0,0,0,0,0,0,0,A
493807,2786,1747,2481,2556,2326,0,0,0,0,0,0,0,0,A
493817,2786,1780,2463,2569,2309,0,0,0,0,0,0,0,0,A
493852,2800,1765,2475,2559,2331,0,0,0,0,0,0,0,0,A
493862,2781,1780,2471,2559,2301,0,0,0,0,0,0,0,0,A
493897,2784,1766,2480,2551,2319,0,0,0,0,0,0,0,0,A
493907,2788,1783,2466,2564,2327,0,0,0,0,0,0,0,0,A
493942,2787,1777,2477,2558,2335,0,0,0,0,0,0,0,0,A
493952,2796,1775,2471,2566,2327,0,0,0,0,0,0,0,0,A
493987,2787,1767,2477,2568,2324,0,0,0,0,0,0,0,0,A
493997,2785,1781,2467,2557,2325,0,0,0,0,0,0,0,0,A
494032,2782,1764,2468,2557,2330,0,0,0,0,0,0,0,0,A
494042,2793,1772,2460,2579,2340,0,0,0,0,0,0,0,0,A
494077,2803,1773,2471,2567,2325,0,0,0,0,0,0,0,0,A
494087,2795,1773,2481,2568,2338,0,0,0,0,0,0,0,0,A
494122,2796,1783,2459,2561,2327,0,0,0,0,0,0,0,0,A
494167,2793,1765,2468,2562,2320,0,0,0,0,0,0,0,0,A
494177,2789,1782,2468,2554,2317,0,0,0,0,0,0,0,0,A
494212,2786,1776,2453,2558,2335,0,0,0,0,0,0,0,0,A
494222,2785,1784,2469,2557,2334,0,0,0,0,0,0,0,0,A
494257,2786,1770,2464,2560,2321,0,0,0,0,0,0,0,0,A
494267,2787,1749,2480,2559,2340,0,0,0,0,0,0,0,0,A
494302,2784,1763,2468,2559,2331,0,0,0,0,0,0,0,0,A
494312,2789,1771,2472,2561,2337,0,0,0,0,0,0,0,0,A
494347,2793,1757,2478,2547,2319,0,0,0,0,0,0,0,0,A
494357,2794,1773,2466,2566,2324,0,0,0,0,0,0,0,0,A
494392,2789,1771,2482,2565,2328,0,0,0,0,0,0,0,0,A
494402,2789,1768,2473,2566,2329,0,0,0,0,0,0,0,0,A
494437,2796,1766,2478,2575,2331,0,0,0,0,0,0,0,0,A
494447,2787,1764,2468,2569,2328,0,0,0,0,0,0,0,0,A
494482,2791,1775,2459,2562,2335,0,0,0,0,0,0,0,0,A
494492,2801,1765,2482,2569,2338,0,0,0,0,0,0,0,0,A
494527,2793,1796,2464,2577,2317,0,0,0,0,0,0,0,0,A
494537,2793,1776,2479,2567,2329,0,0,0,0,0,0,0,0,A
494572,2793,1776,2474,2554,2340,0,0,0,0,0,0,0,0,A
494582,2798,1776,2496,2568,2332,0,0,0,0,0,0,0,0,A
494617,2793,1783,2473,2569,2318,0,0,0,0,0,0,0,0,A
494627,2786,1773,2480,2567,2329,0,0,0,0,0,0,0,0,A
494662,2781,1773,2473,2562,2314,0,0,0,0,0,0,0,0,A
494672,2787,1774,2476,2576,2332,0,0,0,0,0,0,0,0,A
494707,2796,1778,2481,2564,2327,0,0,0,0,0,0,0,0,A
494717,2789,1782,2470,2564,2338,0,0,0,0,0,0,0,0,A
494752,2792,1772,2459,2561,2326,0,0,0,0,0,0,0,0,A
494797,2775,1781,2451,2564,2326,0,0,0,0,0,0,0,0,A
494807,2793,1763,2471,2558,2331,0,0,0,0,0,0,0,0,A
494842,2792,1769,2469,2564,2324,0,0,0,0,0,0,0,0,A
494852,2790,1757,2476,2562,2332,0,0,0,0,0,0,0,0,A
494887,2789,1775,2480,2570,2329,0,0,0,0,0,0,0,0,A
494897,2792,1775,2482,2563,2327,0,0,0,0,0,0,0,0,A
494932,2792,1774,2468,2563,2336,0,0,0,0,0,0,0,0,A
494942,2788,1769,2470,2561,2338,0,0,0,0,0,0,0,0,A
494977,2794,1755,2476,2576,2320,0,0,0,0,0,0,0,0,A
494987,2785,1778,2472,2565,2324,0,0,0,0,0,0,0,0,A
495022,2775,1769,2459,2564,2319,0,0,0,0,0,0,0,0,A
495032,2787,1789,2466,2555,2336,0,0,0,0,0,0,0,0,A
495067,2795,1781,2479,2563,2333,0,0,0,0,0,0,0,0,A
495113,2786,1780,2480,2560,2303,0,0,0,0,0,0,0,0,A
495123,2793,1766,2468,2571,2335,0,0,0,0,0,0,0,0,A
495157,2781,1782,2467,2564,2330,0,0,0,0,0,0,0,0,A
495167,2791,1765,2474,2560,2324,0,0,0,0,0,0,0,0,A
495202,2783,1774,2481,2562,2322,0,0,0,0,0,0,0,0,A
495212,2773,1775,2476,2570,2331,0,0,0,0,0,0,0,0,A
495247,2796,1757,2477,2563,2329,0,0,0,0,0,0,0,0,A
495257,2789,1775,2480,2570,2325,0,0,0,0,0,0,0,0,A
495292,2792,1763,2481,2559,2327,0,0,0,0,0,0,0,0,A
495302,2793,1776,2479,2557,2336,0,0,0,0,0,0,0,0,A
495337,2791,1785,2469,2567,2330,0,0,0,0,0,0,0,0,A
495347,2789,1759,2483,2565,2302,0,0,0,0,0,0,0,0,A
495382,2790,1782,2470,2568,2318,0,0,0,0,0,0,0,0,A
495392,2792,1782,2467,2572,2336,0,0,0,0,0,0,0,0,A
495427,2791,1781,2476,2562,2330,0,0,0,0,0,0,0,0,A
495437,2792,1765,2476,2560,2335,0,0,0,0,0,0,0,0,A
495472,2783,1764,2476,2549,2336,0,0,0,0,0,0,0,0,A
495482,2787,1776,2469,2566,2311,0,0,0,0,0,0,0,0,A
495517,2800,1771,2474,2574,2332,0,0,0,0,0,0,0,0,A
495527,2797,1761,2475,2570,2325,0,0,0,0,0,0,0,0,A
495562,2780,1754,2470,2551,2331,0,0,0,0,0,0,0,0,A
495572,2794,1768,2479,2576,2334,0,0,0,0,0,0,0,0,A
495607,2791,1765,2478,2564,2334,0,0,0,0,0,0,0,0,A
495617,2784,1777,2484,2566,2332,0,0,0,0,0,0,0,0,A
495652,2795,1773,2486,2568,2326,0,0,0,0,0,0,0,0,A
495662,2794,1783,2474,2562,2325,0,0,0,0,0,0,0,0,A
495697,2786,1776,2475,2562,2312,0,0,0,0,0,0,0,0,A
495707,2795,1765,2478,2559,2329,0,0,0,0,0,0,0,0,A
495742,2790,1772,2475,2560,2336,0,0,0,0,0,0,0,0,A
495752,2789,1779,2482,2558,2329,0,0,0,0,0,0,0,0,A
495787,2783,1783,2481,2568,2328,0,0,0,0,0,0,0,0,A
495797,2788,1767,2479,2577,2331,0,0,0,0,0,0,0,0,A
495832,2785,1784,2477,2568,2316,0,0,0,0,0,0,0,0,A
495842,2790,1770,2472,2570,2336,0,0,0,0,0,0,0,0,A
495877,2786,1776,2462,2563,2343,0,0,0,0,0,0,0,0,A
495887,2785,1761,2476,2559,2332,0,0,0,0,0,0,0,0,A
495922,2793,1788,2471,2568,2331,0,0,0,0,0,0,0,0,A
495932,2795,1777,2476,2555,2335,0,0,0,0,0,0,0,0,A
495967,2789,1761,2477,2575,2336,0,0,0,0,0,0,0,0,A
495977,2782,1769,2476,2561,2341,0,0,0,0,0,0,0,0,A
496012,2800,1778,2480,2554,2325,0,0,0,0,0,0,0,0,A
496022,2788,1770,2468,2569,2332,0,0,0,0,0,0,0,0,A
496057,2794,1770,2475,2572,2311,0,0,0,0,0,0,0,0,A
496067,2786,1774,2481,2563,2329,0,0,0,0,0,0,0,0,A
496102,2785,1782,2473,2565,2328,0,0,0,0,0,0,0,0,A
496112,2787,1776,2476,2568,2331,0,0,0,0,0,0,0,0,A
496147,2791,1776,2480,2560,2327,0,0,0,0,0,0,0,0,A
496157,2794,1775,2489,2559,2334,0,0,0,0,0,0,0,0,A
496192,2794,1776,2481,2565,2319,0,0,0,0,0,0,0,0,A
496202,2788,1782,2478,2569,2341,0,0,0,0,0,0,0,0,A
496237,2794,1777,2483,2568,2337,0,0,0,0,0,0,0,0,A
496247,2793,1780,2479,2567,2330,0,0,0,0,0,0,0,0,A
496282,2785,1776,2470,2568,2331,0,0,0,0,0,0,0,0,A
496292,2796,1761,2482,2568,2326,0,0,0,0,0,0,0,0,A
496327,2792,1774,2484,2567,2339,0,0,0,0,0,0,0,0,A
496337,2792,1785,2471,2566,2329,0,0,0,0,0,0,0,0,A
496372,2788,1783,2488,2554,2335,0,0,0,0,0,0,0,0,A
496382,2789,1772,2470,2564,2327,0,0,0,0,0,0,0,0,A
496417,2792,1782,2466,2572,2333,0,0,0,0,0,0,0,0,A
496427,2790,1772,2480,2568,2323,0,0,0,0,0,0,0,0,A
496462,2798,1787,2485,2566,2328,0,0,0,0,0,0,0,0,A
496472,2789,1775,2478,2573,2331,0,0,0,0,0,0,0,0,A
496507,2786,1759,2474,2567,2336,0,0,0,0,0,0,0,0,A
496517,2792,1775,2482,2568,2327,0,0,0,0,0,0,0,0,A
496552,2790,1783,2474,2562,2335,0,0,0,0,0,0,0,0,A
496597,2800,1756,2474,2568,2334,0,0,0,0,0,0,0,0,A
496607,2787,1783,2472,2562,2311,0,0,0,0,0,0,0,0,A
496642,2798,1781,2469,2562,2329,0,0,0,0,0,0,0,0,A
496652,2781,1770,2474,2568,2312,0,0,0,0,0,0,0,0,A
496687,2800,1761,2472,2571,2324,0,0,0,0,0,0,0,0,A
496697,2788,1764,2475,2565,2336,0,0,0,0,0,0,0,0,A
496732,2788,1781,2473,2559,2319,0,0,0,0,0,0,0,0,A
496742,2796,1778,2479,2569,2324,0,0,0,0,0,0,0,0,A
496777,2792,1776,2480,2552,2326,0,0,0,0,0,0,0,0,A
496787,2788,1774,2481,2576,2336,0,0,0,0,0,0,0,0,A
496822,2784,1787,2473,2568,2329,0,0,0,0,0,0,0,0,A
496832,2785,1767,2476,2570,2327,0,0,0,0,0,0,0,0,A
496867,2793,1777,2470,2566,2331,0,0,0,0,0,0,0,0,A
496912,2798,1776,2475,2569,2308,0,0,0,0,0,0,0,0,A
496923,2792,1786,2482,2571,2333,0,0,0,0,0,0,0,0,A
496957,2788,1774,2480,2566,2345,0,0,0,0,0,0,0,0,A
496967,2792,1772,2490,2568,2330,0,0,0,0,0,0,0,0,A
497002,2790,1779,2483,2568,2332,0,0,0,0,0,0,0,0,A
497047,2791,1776,2471,2566,2335,0,0,0,0,0,0,0,0,A
497057,2782,1762,2485,2563,2293,0,0,0,0,0,0,0,0,A
497092,2796,1787,2475,2562,2334,0,0,0,0,0,0,0,0,A
497102,2800,1776,2481,2560,2342,0,0,0,0,0,0,0,0,A
497137,2783,1768,2480,2576,2335,0,0,0,0,0,0,0,0,A
497147,2795,1783,2460,2563,2331,0,0,0,0,0,0,0,0,A
497182,2789,1754,2474,2562,2324,0,0,0,0,0,0,0,0,A
497192,2789,1780,2461,2565,2328,0,0,0,0,0,0,0,0,A
497227,2789,1775,2468,2567,2341,0,0,0,0,0,0,0,0,A
497237,2787,1760,2477,2568,2326,0,0,0,0,0,0,0,0,A
497272,2791,1771,2478,2559,2344,0,0,0,0,0,0,0,0,A
497282,2788,1772,2472,2562,2326,0,0,0,0,0,0,0,0,A
497317,2792,1777,2476,2568,2325,0,0,0,0,0,0,0,0,A
497327,2790,1781,2469,2568,2324,0,0,0,0,0,0,0,0,A
497362,2779,1781,2463,2553,2335,0,0,0,0,0,0,0,0,A
497372,2789,1772,2475,2562,2332,0,0,0,0,0,0,0,0,A
497407,2794,1770,2480,2575,2307,0,0,0,0,0,0,0,0,A
497417,2792,1775,2477,2561,2324,0,0,0,0,0,0,0,0,A
497452,2790,1771,2463,2572,2336,0,0,0,0,0,0,0,0,A
497462,2783,1791,2459,2567,2320,0,0,0,0,0,0,0,0,A
497497,2796,1773,2483,2568,2315,0,0,0,0,0,0,0,0,A
497507,2792,1767,2489,2561,2324,0,0,0,0,0,0,0,0,A
497542,2795,1784,2481,2572,2328,0,0,0,0,0,0,0,0,A
497552,2797,1781,2478,2565,2325,0,0,0,0,0,0,0,0,A
497587,2790,1778,2482,2567,2331,0,0,0,0,0,0,0,0,A
497597,2797,1774,2467,2561,2326,0,0,0,0,0,0,0,0,A
497632,2792,1779,2469,2559,2328,0,0,0,0,0,0,0,0,A
497642,2795,1762,2472,2559,2328,0,0,0,0,0,0,0,0,A
497677,2792,1766,2478,2572,2334,0,0,0,0,0,0,0,0,A
497687,2791,1768,2469,2563,2336,0,0,0,0,0,0,0,0,A
497722,2791,1766,2481,2562,2344,0,0,0,0,0,0,0,0,A
497732,2801,1782,2476,2564,2311,0,0,0,0,0,0,0,0,A
497767,2787,1774,2472,2568,2319,0,0,0,0,0,0,0,0,A
497777,2788,1778,2462,2564,2325,0,0,0,0,0,0,0,0,A
497812,2792,1792,2472,2566,2326,0,0,0,0,0,0,0,0,A
497822,2775,1777,2476,2562,2325,0,0,0,0,0,0,0,0,A
497857,2782,1778,2484,2560,2324,0,0,0,0,0,0,0,0,A
497867,2791,1772,2475,2576,2336,0,0,0,0,0,0,0,0,A
497902,2789,1787,2469,2568,2316,0,0,0,0,0,0,0,0,A
497912,2782,1776,2480,2566,2321,0,0,0,0,0,0,0,0,A
497947,2794,1782,2462,2567,2324,0,0,0,0,0,0,0,0,A
497957,2787,1766,2484,2561,2327,0,0,0,0,0,0,0,0,A
497992,2794,1781,2478,2561,2334,0,0,0,0,0,0,0,0,A
498002,2787,1779,2483,2570,2333,0,0,0,0,0,0,0,0,A
498037,2800,1783,2481,2553,2327,0,0,0,0,0,0,0,0,A
498047,2797,1757,2479,2562,2342,0,0,0,0,0,0,0,0,A
498082,2795,1770,2475,2565,2331,0,0,0,0,0,0,0,0,A
498092,2783,1766,2479,2565,2321,0,0,0,0,0,0,0,0,A
498127,2794,1775,2471,2562,2330,0,0,0,0,0,0,0,0,A
498137,2799,1779,2460,2576,2337,0,0,0,0,0,0,0,0,A
498172,2785,1786,2469,2563,2333,0,0,0,0,0,0,0,0,A
498182,2775,1775,2483,2547,2344,0,0,0,0,0,0,0,0,A
498217,2786,1776,2483,2568,2338,0,0,0,0,0,0,0,0,A
498227,2792,1754,2478,2559,2335,0,0,0,0,0,0,0,0,A
498262,2796,1776,2479,2574,2336,0,0,0,0,0,0,0,0,A
498272,2788,1782,2471,2569,2329,0,0,0,0,0,0,0,0,A
498307,2789,1790,2479,2575,2344,0,0,0,0,0,0,0,0,A
498317,2793,1780,2479,2568,2337,0,0,0,0,0,0,0,0,A
498352,2790,1775,2481,2561,2336,0,0,0,0,0,0,0,0,A
498362,2786,1780,2475,2563,2328,0,0,0,0,0,0,0,0,A
498397,2791,1777,2474,2567,2311,0,0,0,0,0,0,0,0,A
498407,2788,1772,2474,2568,2326,0,0,0,0,0,0,0,0,A
498442,2788,1767,2472,2570,2335,0,0,0,0,0,0,0,0,A
498452,2786,1783,2480,2573,2344,0,0,0,0,0,0,0,0,A
498487,2784,1772,2480,2565,2331,0,0,0,0,0,0,0,0,A
498497,2792,1781,2480,2569,2335,0,0,0,0,0,0,0,0,A
498532,2797,1755,2471,2565,2323,0,0,0,0,0,0,0,0,A
499837,2791,1789,2472,2572,2319,0,0,0,0,0,0,0,0,A
499847,2793,1795,2477,2560,2323,0,0,0,0,0,0,0,0,A
499882,2794,1775,2476,2569,2334,0,0,0,0,0,0,0,0,A
499892,2784,1778,2490,2571,2327,0,0,0,0,0,0,0,0,A
499927,2792,1772,2474,2575,2334,0,0,0,0,0,0,0,0,A
499937,2805,1771,2479,2566,2333,0,0,0,0,0,0,0,0,A
499972,2795,1790,2480,2566,2326,0,0,0,0,0,0,0,0,A
499982,2789,1769,2484,2567,2340,0,0,0,0,0,0,0,0,A
500017,2785,1760,2471,2560,2323,0,0,0,0,0,0,0,0,A
500027,2792,1785,2468,2565,2344,0,0,0,0,0,0,0,0,A
500062,2786,1772,2471,2564,2334,0,0,0,0,0,0,0,0,A
500072,2789,1794,2471,2560,2328,0,0,0,0,0,0,0,0,A
500107,2785,1769,2474,2565,2331,0,0,0,0,0,0,0,0,A
500117,2788,1770,2480,2559,2325,0,0,0,0,0,0,0,0,A
500152,2788,1781,2476,2566,2337,0,0,0,0,0,0,0,0,A
500162,2802,1793,2478,2567,2304,0,0,0,0,0,0,0,0,A
500197,2793,1779,2478,2565,2350,0,0,0,0,0,0,0,0,A
500207,2788,1775,2475,2561,2333,0,0,0,0,0,0,0,0,A
500242,2787,1775,2475,2561,2335,0,0,0,0,0,0,0,0,A
500252,2802,1776,2474,2577,2331,0,0,0,0,0,0,0,0,A
500287,2792,1779,2477,2567,2325,0,0,0,0,0,0,0,0,A
500297,2804,1790,2466,2560,2337,0,0,0,0,0,0,0,0,A
500332,2783,1784,2480,2572,2331,0,0,0,0,0,0,0,0,A
500342,2796,1771,2475,2571,2329,0,0,0,0,0,0,0,0,A
500377,2784,1775,2463,2569,2311,0,0,0,0,0,0,0,0,A
500387,2790,1783,2485,2566,2339,0,0,0,0,0,0,0,0,A
500422,2797,1781,2484,2575,2346,0,0,0,0,0,0,0,0,A
500432,2792,1763,2478,2556,2336,0,0,0,0,0,0,0,0,A
500467,2781,1768,2461,2563,2314,0,0,0,0,0,0,0,0,A
500477,2792,1783,2480,2547,2331,0,0,0,0,0,0,0,0,A
500512,2797,1789,2470,2573,2335,0,0,0,0,0,0,0,0,A
500522,2792,1773,2475,2571,2307,0,0,0,0,0,0,0,0,A
500557,2791,1776,2487,2565,2325,0,0,0,0,0,0,0,0,A
500567,2787,1757,2482,2572,2319,0,0,0,0,0,0,0,0,A
500602,2795,1781,2479,2569,2335,0,0,0,0,0,0,0,0,A
500612,2783,1771,2479,2558,2332,0,0,0,0,0,0,0,0,A
500647,2793,1783,2474,2556,2340,0,0,0,0,0,0,0,0,A
500657,2799,1784,2488,2568,2332,0,0,0,0,0,0,0,0,A
500692,2800,1781,2483,2573,2335,0,0,0,0,0,0,0,0,A
500702,2796,1782,2483,2567,2334,0,0,0,0,0,0,0,0,A
500737,2792,1798,2480,2566,2331,0,0,0,0,0,0,0,0,A
500747,2791,1783,2463,2570,2317,0,0,0,0,0,0,0,0,A
500782,2789,1798,2467,2563,2328,0,0,0,0,0,0,0,0,A
500792,2799,1786,2480,2566,2323,0,0,0,0,0,0,0,0,A
500827,2785,1773,2477,2566,2334,0,0,0,0,0,0,0,0,A
500837,2800,1793,2470,2566,2336,0,0,0,0,0,0,0,0,A
500872,2795,1781,2478,2571,2340,0,0,0,0,0,0,0,0,A
500882,2791,1764,2477,2565,2325,0,0,0,0,0,0,0,0,A
500917,2789,1770,2471,2564,2333,0,0,0,0,0,0,0,0,A
500927,2792,1787,2480,2567,2313,0,0,0,0,0,0,0,0,A
500962,2782,1775,2485,2563,2336,0,0,0,0,0,0,0,0,A
500972,2787,1788,2474,2565,2316,0,0,0,0,0,0,0,0,A
501007,2787,1786,2481,2568,2331,0,0,0,0,0,0,0,0,A
501017,2777,1777,2470,2570,2325,0,0,0,0,0,0,0,0,A
501052,2794,1780,2484,2566,2340,0,0,0,0,0,0,0,0,A
501062,2783,1771,2479,2575,2318,0,0,0,0,0,0,0,0,A
501097,2792,1775,2488,2573,2343,0,0,0,0,0,0,0,0,A
501107,2789,1777,2479,2574,2337,0,0,0,0,0,0,0,0,A
501142,2787,1792,2479,2575,2338,0,0,0,0,0,0,0,0,A
501152,2793,1782,2485,2565,2336,0,0,0,0,0,0,0,0,A
501187,2781,1767,2461,2569,2331,0,0,0,0,0,0,0,0,A
501197,2790,1786,2472,2563,2331,0,0,0,0,0,0,0,0,A
501232,2785,1778,2468,2563,2340,0,0,0,0,0,0,0,0,A
501242,2788,1780,2480,2566,2332,0,0,0,0,0,0,0,0,A
501277,2792,1800,2484,2571,2337,0,0,0,0,0,0,0,0,A
501287,2785,1778,2476,2562,2311,0,0,0,0,0,0,0,0,A
501322,2792,1772,2476,2559,2324,0,0,0,0,0,0,0,0,A
501332,2790,1787,2474,2563,2333,0,0,0,0,0,0,0,0,A
501367,2780,1785,2483,2564,2329,0,0,0,0,0,0,0,0,A
501377,2794,1781,2475,2574,2327,0,0,0,0,0,0,0,0,A
501412,2784,1775,2465,2569,2322,0,0,0,0,0,0,0,0,A
501422,2787,1787,2468,2569,2336,0,0,0,0,0,0,0,0,A
501457,2788,1784,2483,2575,2335,0,0,0,0,0,0,0,0,A
501467,2794,1767,2493,2565,2311,0,0,0,0,0,0,0,0,A
501502,2784,1777,2473,2572,2314,0,0,0,0,0,0,0,0,A
501512,2791,1785,2488,2575,2340,0,0,0,0,0,0,0,0,A
501547,2792,1792,2465,2567,2332,0,0,0,0,0,0,0,0,A
501557,2795,1785,2488,2561,2347,0,0,0,0,0,0,0,0,A
501592,2783,1775,2485,2566,2332,0,0,0,0,0,0,0,0,A
501602,2794,1789,2486,2565,2318,0,0,0,0,0,0,0,0,A
501637,2793,1783,2480,2566,2329,0,0,0,0,0,0,0,0,A
501647,2789,1773,2476,2567,2344,0,0,0,0,0,0,0,0,A
501682,2784,1785,2473,2562,2334,0,0,0,0,0,0,0,0,A
501692,2792,1753,2479,2568,2328,0,0,0,0,0,0,0,0,A
501727,2791,1766,2477,2565,2337,0,0,0,0,0,0,0,0,A
501737,2796,1774,2493,2568,2327,0,0,0,0,0,0,0,0,A
501772,2793,1759,2489,2568,2335,0,0,0,0,0,0,0,0,A
501782,2792,1787,2484,2578,2333,0,0,0,0,0,0,0,0,A
501817,2787,1775,2476,2563,2337,0,0,0,0,0,0,0,0,A
501827,2792,1773,2477,2564,2341,0,0,0,0,0,0,0,0,A
501862,2800,1774,2478,2559,2338,0,0,0,0,0,0,0,0,A
501872,2794,1778,2480,2554,2320,0,0,0,0,0,0,0,0,A
501907,2797,1775,2496,2570,2333,0,0,0,0,0,0,0,0,A
501917,2787,1767,2478,2572,2345,0,0,0,0,0,0,0,0,A
501952,2794,1780,2482,2570,2333,0,0,0,0,0,0,0,0,A
501962,2793,1768,2482,2585,2341,0,0,0,0,0,0,0,0,A
501997,2787,1774,2468,2576,2326,0,0,0,0,0,0,0,0,A
502007,2784,1778,2476,2559,2331,0,0,0,0,0,0,0,0,A
502042,2790,1771,2483,2567,2324,0,0,0,0,0,0,0,0,A
502052,2792,1785,2480,2569,2341,0,0,0,0,0,0,0,0,A
502087,2794,1779,2468,2563,2330,0,0,0,0,0,0,0,0,A
502097,2789,1769,2481,2563,2338,0,0,0,0,0,0,0,0,A
502132,2790,1775,2470,2574,2327,0,0,0,0,0,0,0,0,A
502142,2787,1788,2486,2567,2336,0,0,0,0,0,0,0,0,A
502177,2791,1757,2488,2560,2327,0,0,0,0,0,0,0,0,A
502187,2785,1787,2478,2565,2334,0,0,0,0,0,0,0,0,A
502222,2795,1779,2480,2568,2349,0,0,0,0,0,0,0,0,A
502232,2783,1779,2492,2563,2338,0,0,0,0,0,0,0,0,A
502267,2793,1775,2481,2568,2329,0,0,0,0,0,0,0,0,A
502277,2783,1778,2487,2575,2325,0,0,0,0,0,0,0,0,A
502312,2781,1782,2481,2564,2331,0,0,0,0,0,0,0,0,A
502322,2799,1757,2480,2568,2338,0,0,0,0,0,0,0,0,A
502357,2786,1785,2483,2572,2334,0,0,0,0,0,0,0,0,A
502367,2788,1791,2480,2568,2337,0,0,0,0,0,0,0,0,A
502402,2777,1778,2479,2565,2349,0,0,0,0,0,0,0,0,A
502412,2792,1784,2468,2576,2339,0,0,0,0,0,0,0,0,A
502447,2792,1774,2475,2568,2319,0,0,0,0,0,0,0,0,A
502457,2792,1796,2473,2561,2337,0,0,0,0,0,0,0,0,A
502492,2795,1773,2478,2564,2339,0,0,0,0,0,0,0,0,A
502502,2800,1783,2488,2573,2332,0,0,0,0,0,0,0,0,A
502537,2797,1784,2488,2567,2327,0,0,0,0,0,0,0,0,A
502547,2792,1785,2479,2567,2333,0,0,0,0,0,0,0,0,A
502582,2791,1787,2477,2567,2340,0,0,0,0,0,0,0,0,A
502592,2787,1775,2481,2568,2325,0,0,0,0,0,0,0,0,A
502627,2791,1761,2482,2564,2319,0,0,0,0,0,0,0,0,A
502637,2787,1781,2492,2561,2336,0,0,0,0,0,0,0,0,A
502672,2788,1783,2488,2574,2328,0,0,0,0,0,0,0,0,A
502682,2793,1783,2475,2560,2332,0,0,0,0,0,0,0,0,A
502717,2789,1773,2476,2569,2332,0,0,0,0,0,0,0,0,A
502727,2790,1778,2479,2566,2331,0,0,0,0,0,0,0,0,A
502762,2793,1778,2478,2577,2321,0,0,0,0,0,0,0,0,A
502807,2793,1781,2475,2566,2332,0,0,0,0,0,0,0,0,A
502817,2789,1784,2475,2566,2340,0,0,0,0,0,0,0,0,A
502852,2785,1783,2479,2562,2330,0,0,0,0,0,0,0,0,A
502862,2784,1785,2478,2573,2333,0,0,0,0,0,0,0,0,A
502897,2779,1773,2482,2570,2330,0,0,0,0,0,0,0,0,A
502907,2779,1788,2480,2563,2331,0,0,0,0,0,0,0,0,A
502942,2787,1776,2474,2572,2332,0,0,0,0,0,0,0,0,A
502952,2781,1782,2481,2571,2315,0,0,0,0,0,0,0,0,A
502987,2793,1787,2470,2571,2336,0,0,0,0,0,0,0,0,A
502997,2790,1770,2486,2564,2324,0,0,0,0,0,0,0,0,A
503032,2791,1783,2484,2571,2326,0,0,0,0,0,0,0,0,A
503042,2798,1785,2479,2567,2329,0,0,0,0,0,0,0,0,A
503077,2794,1774,2470,2584,2326,0,0,0,0,0,0,0,0,A
503087,2794,1781,2481,2575,2318,0,0,0,0,0,0,0,0,A
503122,2788,1787,2473,2554,2326,0,0,0,0,0,0,0,0,A
503132,2790,1784,2471,2561,2340,0,0,0,0,0,0,0,0,A
503167,2788,1797,2478,2567,2325,0,0,0,0,0,0,0,0,A
503177,2795,1792,2475,2571,2346,0,0,0,0,0,0,0,0,A
503212,2798,1775,2480,2561,2325,0,0,0,0,0,0,0,0,A
503222,2795,1783,2449,2576,2312,0,0,0,0,0,0,0,0,A
503257,2791,1784,2477,2572,2336,0,0,0,0,0,0,0,0,A
503267,2798,1764,2478,2573,2340,0,0,0,0,0,0,0,0,A
503302,2788,1767,2472,2564,2323,0,0,0,0,0,0,0,0,A
503312,2784,1782,2490,2572,2335,0,0,0,0,0,0,0,0,A
503347,2792,1780,2479,2573,2325,0,0,0,0,0,0,0,0,A
503357,2781,1784,2473,2569,2362,0,0,0,0,0,0,0,0,A
503392,2788,1779,2489,2567,2338,0,0,0,0,0,0,0,0,A
503402,2787,1779,2486,2569,2342,0,0,0,0,0,0,0,0,A
503437,2789,1786,2478,2580,2335,0,0,0,0,0,0,0,0,A
503447,2796,1778,2473,2566,2312,0,0,0,0,0,0,0,0,A
503482,2787,1772,2490,2565,2333,0,0,0,0,0,0,0,0,A
503492,2793,1792,2483,2562,2334,0,0,0,0,0,0,0,0,A
503527,2795,1783,2465,2581,2328,0,0,0,0,0,0,0,0,A
503537,2792,1788,2481,2573,2335,0,0,0,0,0,0,0,0,A
503572,2787,1789,2469,2559,2352,0,0,0,0,0,0,0,0,A
503582,2796,1765,2468,2563,2335,0,0,0,0,0,0,0,0,A
503617,2788,1785,2484,2559,2331,0,0,0,0,0,0,0,0,A
503627,2789,1793,2475,2559,2337,0,0,0,0,0,0,0,0,A
503662,2794,1781,2482,2562,2313,0,0,0,0,0,0,0,0,A
503672,2797,1783,2482,2569,2341,0,0,0,0,0,0,0,0,A
503707,2791,1776,2474,2573,2333,0,0,0,0,0,0,0,0,A
503717,2788,1779,2477,2567,2331,0,0,0,0,0,0,0,0,A
503752,2779,1767,2469,2562,2335,0,0,0,0,0,0,0,0,A
503762,2791,1769,2472,2569,2335,0,0,0,0,0,0,0,0,A
503797,2783,1775,2463,2570,2325,0,0,0,0,0,0,0,0,A
503807,2792,1782,2489,2568,2323,0,0,0,0,0,0,0,0,A
503842,2800,1783,2485,2576,2337,0,0,0,0,0,0,0,0,A
503852,2788,1776,2475,2567,2305,0,0,0,0,0,0,0,0,A
503887,2790,1784,2479,2571,2337,0,0,0,0,0,0,0,0,A
503897,2785,1780,2468,2569,2327,0,0,0,0,0,0,0,0,A
503932,2775,1798,2481,2565,2305,0,0,0,0,0,0,0,0,A
503942,2794,1775,2473,2569,2336,0,0,0,0,0,0,0,0,A
503977,2792,1773,2485,2576,2324,0,0,0,0,0,0,0,0,A
503987,2793,1781,2488,2571,2344,0,0,0,0,0,0,0,0,A
504022,2792,1761,2469,2568,2338,0,0,0,0,0,0,0,0,A
504032,2788,1792,2479,2571,2350,0,0,0,0,0,0,0,0,A
504067,2785,1779,2484,2569,2341,0,0,0,0,0,0,0,0,A
504077,2790,1781,2483,2565,2323,0,0,0,0,0,0,0,0,A
504112,2781,1786,2475,2563,2328,0,0,0,0,0,0,0,0,A
504122,2789,1783,2476,2563,2326,0,0,0,0,0,0,0,0,A
504157,2791,1776,2480,2563,2333,0,0,0,0,0,0,0,0,A
504167,2792,1779,2471,2569,2327,0,0,0,0,0,0,0,0,A
504202,2789,1782,2482,2568,2318,0,0,0,0,0,0,0,0,A
504212,2795,1789,2483,2572,2333,0,0,0,0,0,0,0,0,A
504247,2792,1771,2487,2561,2332,0,0,0,0,0,0,0,0,A
504257,2794,1781,2475,2572,2336,0,0,0,0,0,0,0,0,A
504292,2806,1783,2492,2571,2339,0,0,0,0,0,0,0,0,A
504302,2795,1784,2475,2569,2330,0,0,0,0,0,0,0,0,A
504337,2795,1770,2476,2567,2333,0,0,0,0,0,0,0,0,A
504347,2785,1781,2482,2559,2325,0,0,0,0,0,0,0,0,A
504382,2786,1772,2472,2567,2349,0,0,0,0,0,0,0,0,A
504392,2794,1786,2486,2577,2341,0,0,0,0,0,0,0,0,A
504427,2791,1777,2479,2567,2338,0,0,0,0,0,0,0,0,A
504437,2792,1811,2477,2571,2331,0,0,0,0,0,0,0,0,A
504472,2798,1786,2477,2561,2334,0,0,0,0,0,0,0,0,A
504482,2798,1780,2481,2559,2326,0,0,0,0,0,0,0,0,A
504517,2788,1784,2483,2564,2335,0,0,0,0,0,0,0,0,A
504527,2789,1787,2479,2569,2331,0,0,0,0,0,0,0,0,A
504562,2792,1779,2480,2558,2331,0,0,0,0,0,0,0,0,A
504572,2792,1765,2491,2576,2333,0,0,0,0,0,0,0,0,A
504607,2784,1774,2482,2567,2333,0,0,0,0,0,0,0,0,A
504617,2791,1778,2471,2577,2329,0,0,0,0,0,0,0,0,A
504652,2788,1778,2484,2562,2314,0,0,0,0,0,0,0,0,A
504662,2787,1782,2480,2566,2322,0,0,0,0,0,0,0,0,A
504697,2791,1777,2470,2573,2327,0,0,0,0,0,0,0,0,A
504707,2792,1763,2482,2575,2337,0,0,0,0,0,0,0,0,A
504742,2789,1786,2487,2564,2320,0,0,0,0,0,0,0,0,A
504752,2793,1780,2481,2568,2337,0,0,0,0,0,0,0,0,A
504787,2787,1783,2489,2574,2321,0,0,0,0,0,0,0,0,A
504797,2793,1778,2464,2563,2313,0,0,0,0,0,0,0,0,A
504832,2783,1779,2477,2562,2319,0,0,0,0,0,0,0,0,A
504842,2788,1780,2474,2572,2340,0,0,0,0,0,0,0,0,A
504877,2785,1776,2483,2565,2354,0,0,0,0,0,0,0,0,A
504887,2788,1786,2486,2568,2349,0,0,0,0,0,0,0,0,A
504922,2792,1783,2488,2566,2326,0,0,0,0,0,0,0,0,A
504932,2785,1782,2475,2580,2336,0,0,0,0,0,0,0,0,A
504967,2793,1801,2480,2581,2362,0,0,0,0,0,0,0,0,A
504977,2792,1780,2480,2568,2335,0,0,0,0,0,0,0,0,A
505012,2787,1775,2484,2569,2315,0,0,0,0,0,0,0,0,A
505022,2784,1788,2479,2575,2336,0,0,0,0,0,0,0,0,A
505057,2784,1774,2472,2577,2309,0,0,0,0,0,0,0,0,A
505067,2794,1790,2482,2574,2339,0,0,0,0,0,0,0,0,A
505102,2786,1783,2485,2567,2331,0,0,0,0,0,0,0,0,A
505112,2788,1783,2483,2574,2335,0,0,0,0,0,0,0,0,A
505147,2794,1770,2483,2568,2337,0,0,0,0,0,0,0,0,A
505157,2792,1790,2488,2576,2336,0,0,0,0,0,0,0,0,A
505192,2788,1781,2480,2569,2336,0,0,0,0,0,0,0,0,A
505202,2790,1784,2484,2565,2336,0,0,0,0,0,0,0,0,A
505237,2799,1788,2477,2579,2316,0,0,0,0,0,0,0,0,A
505247,2786,1788,2485,2570,2333,0,0,0,0,0,0,0,0,A
505282,2792,1770,2482,2580,2327,0,0,0,0,0,0,0,0,A
505292,2787,1783,2471,2575,2339,0,0,0,0,0,0,0,0,A
505327,2791,1775,2480,2569,2326,0,0,0,0,0,0,0,0,A
505337,2791,1770,2487,2576,2326,0,0,0,0,0,0,0,0,A
505372,2797,1789,2489,2575,2349,0,0,0,0,0,0,0,0,A
505382,2781,1797,2483,2570,2344,0,0,0,0,0,0,0,0,A
505417,2785,1774,2487,2573,2328,0,0,0,0,0,0,0,0,A
505427,2800,1781,2482,2563,2338,0,0,0,0,0,0,0,0,A
505462,2789,1781,2480,2570,2334,0,0,0,0,0,0,0,0,A
505472,2791,1772,2477,2567,2333,0,0,0,0,0,0,0,0,A
505507,2790,1794,2486,2574,2338,0,0,0,0,0,0,0,0,A
505552,2788,1792,2477,2565,2332,0,0,0,0,0,0,0,0,A
505562,2784,1781,2496,2579,2325,0,0,0,0,0,0,0,0,A
505597,2789,1782,2466,2567,2340,0,0,0,0,0,0,0,0,A
505607,2786,1791,2481,2565,2325,0,0,0,0,0,0,0,0,A
505642,2786,1775,2479,2565,2324,0,0,0,0,0,0,0,0,A
505652,2792,1788,2484,2564,2339,0,0,0,0,0,0,0,0,A
505687,2794,1785,2480,2567,2327,0,0,0,0,0,0,0,0,A
505697,2786,1782,2479,2567,2337,0,0,0,0,0,0,0,0,A
505732,2794,1782,2488,2557,2341,0,0,0,0,0,0,0,0,A
505742,2788,1770,2491,2568,2335,0,0,0,0,0,0,0,0,A
505777,2787,1782,2482,2569,2320,0,0,0,0,0,0,0,0,A
505787,2792,1781,2469,2560,2331,0,0,0,0,0,0,0,0,A
505822,2790,1786,2482,2580,2321,0,0,0,0,0,0,0,0,A
505867,2779,1800,2473,2569,2330,0,0,0,0,0,0,0,0,A
505877,2799,1780,2476,2572,2335,0,0,0,0,0,0,0,0,A
505912,2786,1786,2491,2579,2336,0,0,0,0,0,0,0,0,A
505922,2784,1800,2495,2572,2338,0,0,0,0,0,0,0,0,A
505957,2795,1780,2477,2565,2336,0,0,0,0,0,0,0,0,A
505967,2800,1783,2476,2580,2340,0,0,0,0,0,0,0,0,A
506002,2788,1783,2483,2570,2339,0,0,0,0,0,0,0,0,A
506012,2792,1784,2472,2563,2348,0,0,0,0,0,0,0,0,A
506047,2800,1770,2488,2571,2329,0,0,0,0,0,0,0,0,A
506057,2794,1785,2491,2565,2330,0,0,0,0,0,0,0,0,A
506092,2787,1774,2488,2576,2337,0,0,0,0,0,0,0,0,A
506102,2793,1786,2466,2568,2325,0,0,0,0,0,0,0,0,A
506137,2791,1792,2487,2570,2337,0,0,0,0,0,0,0,0,A
506147,2790,1777,2477,2563,2330,0,0,0,0,0,0,0,0,A
506182,2787,1784,2481,2573,2321,0,0,0,0,0,0,0,0,A
506192,2793,1786,2478,2575,2351,0,0,0,0,0,0,0,0,A
506227,2798,1771,2477,2572,2311,0,0,0,0,0,0,0,0,A
506237,2796,1785,2477,2572,2344,0,0,0,0,0,0,0,0,A
506272,2780,1786,2488,2573,2329,0,0,0,0,0,0,0,0,A
506282,2777,1784,2478,2569,2327,0,0,0,0,0,0,0,0,A
506317,2783,1775,2483,2569,2338,0,0,0,0,0,0,0,0,A
506327,2788,1791,2484,2571,2331,0,0,0,0,0,0,0,0,A
506362,2799,1790,2479,2564,2343,0,0,0,0,0,0,0,0,A
506372,2783,1791,2487,2568,2332,0,0,0,0,0,0,0,0,A
506407,2790,1786,2488,2572,2337,0,0,0,0,0,0,0,0,A
506417,2791,1762,2479,2569,2344,0,0,0,0,0,0,0,0,A
506452,2792,1785,2480,2576,2315,0,0,0,0,0,0,0,0,A
506462,2800,1796,2473,2576,2336,0,0,0,0,0,0,0,0,A
506497,2786,1777,2479,2570,2337,0,0,0,0,0,0,0,0,A
506507,2792,1794,2473,2576,2314,0,0,0,0,0,0,0,0,A
506542,2793,1781,2483,2565,2326,0,0,0,0,0,0,0,0,A
506552,2787,1767,2484,2575,2340,0,0,0,0,0,0,0,0,A
506587,2790,1792,2490,2561,2343,0,0,0,0,0,0,0,0,A
506597,2799,1792,2482,2575,2345,0,0,0,0,0,0,0,0,A
506632,2792,1781,2482,2572,2332,0,0,0,0,0,0,0,0,A
558201,2568,2732,2967,2970,2802,0,0,0,0,0,0,0,0,B
558211,2569,2729,2979,2968,2813,0,0,0,0,0,0,0,0,B
558246,2562,2729,2967,2959,2800,0,0,0,0,0,0,0,0,B
558256,2564,2728,2967,2969,2805,0,0,0,0,0,0,0,0,B
558291,2568,2736,2970,2976,2809,0,0,0,0,0,0,0,0,B
558301,2566,2726,2980,2967,2800,0,0,0,0,0,0,0,0,B
558336,2557,2737,2981,2974,2807,0,0,0,0,0,0,0,0,B
558346,2567,2744,2975,2967,2802,0,0,0,0,0,0,0,0,B
558381,2563,2727,2983,2974,2801,0,0,0,0,0,0,0,0,B
558391,2572,2723,2981,2977,2799,0,0,0,0,0,0,0,0,B
558426,2568,2727,2970,2965,2798,0,0,0,0,0,0,0,0,B
558436,2574,2731,2975,2971,2800,0,0,0,0,0,0,0,0,B
558471,2566,2726,2976,2963,2803,0,0,0,0,0,0,0,0,B
558481,2575,2734,2963,2973,2812,0,0,0,0,0,0,0,0,B
558516,2564,2728,2976,2967,2807,0,0,0,0,0,0,0,0,B
558526,2571,2732,2977,2962,2801,0,0,0,0,0,0,0,0,B
558561,2570,2725,2972,2974,2805,0,0,0,0,0,0,0,0,B
558571,2568,2718,2976,2967,2811,0,0,0,0,0,0,0,0,B
558606,2564,2732,2979,2969,2798,0,0,0,0,0,0,0,0,B
558616,2568,2719,2982,2970,2793,0,0,0,0,0,0,0,0,B
558651,2568,2732,2975,2968,2804,0,0,0,0,0,0,0,0,B
558697,2561,2733,2977,2971,2811,0,0,0,0,0,0,0,0,B
558741,2557,2721,2969,2968,2789,0,0,0,0,0,0,0,0,B
558751,2561,2726,2973,2975,2797,0,0,0,0,0,0,0,0,B
558786,2567,2729,2973,2971,2809,0,0,0,0,0,0,0,0,B
558796,2571,2732,2978,2961,2811,0,0,0,0,0,0,0,0,B
558831,2572,2715,2973,2967,2796,0,0,0,0,0,0,0,0,B
558876,2565,2725,2972,2963,2808,0,0,0,0,0,0,0,0,B
558887,2574,2730,2985,2975,2806,0,0,0,0,0,0,0,0,B
558921,2569,2720,2972,2966,2786,0,0,0,0,0,0,0,0,B
558931,2557,2723,2976,2974,2785,0,0,0,0,0,0,0,0,B
558966,2572,2728,2981,2975,2798,0,0,0,0,0,0,0,0,B
558976,2567,2724,2979,2973,2792,0,0,0,0,0,0,0,0,B
559011,2560,2722,2976,2963,2807,0,0,0,0,0,0,0,0,B
559021,2579,2730,2977,2975,2794,0,0,0,0,0,0,0,0,B
559056,2575,2733,2977,2971,2805,0,0,0,0,0,0,0,0,B
559066,2575,2735,2975,2967,2790,0,0,0,0,0,0,0,0,B
559101,2573,2727,2980,2974,2808,0,0,0,0,0,0,0,0,B
559111,2563,2728,2979,2972,2802,0,0,0,0,0,0,0,0,B
559146,2567,2723,2980,2976,2803,0,0,0,0,0,0,0,0,B
559156,2567,2726,2977,2971,2805,0,0,0,0,0,0,0,0,B
559191,2578,2720,2967,2967,2818,0,0,0,0,0,0,0,0,B
559201,2569,2732,2971,2980,2809,0,0,0,0,0,0,0,0,B
559236,2562,2729,2975,2981,2804,0,0,0,0,0,0,0,0,B
559246,2576,2729,2982,2982,2823,0,0,0,0,0,0,0,0,B
559281,2561,2728,2982,2976,2799,0,0,0,0,0,0,0,0,B
559291,2572,2719,2983,2980,2807,0,0,0,0,0,0,0,0,B
559326,2559,2731,2980,2976,2792,0,0,0,0,0,0,0,0,B
559336,2575,2730,2980,2967,2801,0,0,0,0,0,0,0,0,B
559371,2550,2722,2971,2967,2816,0,0,0,0,0,0,0,0,B
559381,2570,2735,2979,2970,2810,0,0,0,0,0,0,0,0,B
559416,2571,2727,2980,2966,2807,0,0,0,0,0,0,0,0,B
559426,2561,2723,2971,2976,2805,0,0,0,0,0,0,0,0,B
559461,2567,2729,2980,2976,2805,0,0,0,0,0,0,0,0,B
559471,2577,2735,2976,2962,2803,0,0,0,0,0,0,0,0,B
559506,2565,2729,2979,2966,2805,0,0,0,0,0,0,0,0,B
559516,2566,2725,2978,2972,2797,0,0,0,0,0,0,0,0,B
559551,2562,2723,2961,2971,2799,0,0,0,0,0,0,0,0,B
559561,2567,2731,2976,2971,2812,0,0,0,0,0,0,0,0,B
559596,2566,2729,2979,2976,2809,0,0,0,0,0,0,0,0,B
559606,2571,2724,2981,2973,2813,0,0,0,0,0,0,0,0,B
559641,2568,2730,2975,2963,2799,0,0,0,0,0,0,0,0,B
559651,2569,2731,2976,2973,2797,0,0,0,0,0,0,0,0,B
559686,2570,2729,2976,2973,2802,0,0,0,0,0,0,0,0,B
559696,2572,2721,2973,2970,2801,0,0,0,0,0,0,0,0,B
559731,2568,2724,2976,2958,2791,0,0,0,0,0,0,0,0,B
559741,2560,2727,2975,2971,2799,0,0,0,0,0,0,0,0,B
559776,2555,2729,2976,2976,2799,0,0,0,0,0,0,0,0,B
559786,2578,2721,2975,2966,2815,0,0,0,0,0,0,0,0,B
559821,2562,2721,2980,2971,2793,0,0,0,0,0,0,0,0,B
559831,2567,2723,2975,2978,2797,0,0,0,0,0,0,0,0,B
559866,2581,2725,2984,2967,2818,0,0,0,0,0,0,0,0,B
559876,2560,2728,2974,2968,2809,0,0,0,0,0,0,0,0,B
559911,2566,2717,2972,2972,2806,0,0,0,0,0,0,0,0,B
559921,2576,2727,2977,2969,2798,0,0,0,0,0,0,0,0,B
559956,2560,2715,2974,2969,2800,0,0,0,0,0,0,0,0,B
559966,2572,2724,2979,2961,2799,0,0,0,0,0,0,0,0,B
560001,2563,2712,2970,2969,2799,0,0,0,0,0,0,0,0,B
560011,2569,2713,2974,2970,2798,0,0,0,0,0,0,0,0,B
560046,2571,2720,2967,2971,2808,0,0,0,0,0,0,0,0,B
560056,2566,2716,2973,2966,2811,0,0,0,0,0,0,0,0,B
560091,2565,2703,2977,2970,2788,0,0,0,0,0,0,0,0,B
560101,2567,2719,2972,2965,2805,0,0,0,0,0,0,0,0,B
560136,2562,2719,2976,2963,2795,0,0,0,0,0,0,0,0,B
560146,2561,2718,2971,2970,2810,0,0,0,0,0,0,0,0,B
560181,2567,2718,2988,2967,2803,0,0,0,0,0,0,0,0,B
560226,2576,2716,2981,2971,2810,0,0,0,0,0,0,0,0,B
560237,2568,2728,2975,2965,2809,0,0,0,0,0,0,0,0,B
560271,2569,2714,2979,2965,2793,0,0,0,0,0,0,0,0,B
560281,2574,2727,2992,2969,2794,0,0,0,0,0,0,0,0,B
560316,2567,2722,2972,2969,2805,0,0,0,0,0,0,0,0,B
560326,2574,2719,2970,2978,2812,0,0,0,0,0,0,0,0,B
560361,2567,2723,2978,2972,2807,0,0,0,0,0,0,0,0,B
560406,2580,2727,2977,2967,2810,0,0,0,0,0,0,0,0,B
560416,2569,2722,2985,2966,2809,0,0,0,0,0,0,0,0,B
560451,2566,2716,2976,2967,2800,0,0,0,0,0,0,0,0,B
560461,2564,2724,2990,2974,2798,0,0,0,0,0,0,0,0,B
560496,2562,2717,2980,2970,2813,0,0,0,0,0,0,0,0,B
560541,2574,2708,2972,2954,2795,0,0,0,0,0,0,0,0,B
560551,2572,2721,2975,2973,2799,0,0,0,0,0,0,0,0,B
560586,2574,2733,2973,2975,2809,0,0,0,0,0,0,0,0,B
560596,2574,2722,2975,2975,2801,0,0,0,0,0,0,0,0,B
560631,2562,2732,2973,2967,2781,0,0,0,0,0,0,0,0,B
560641,2569,2719,2966,2974,2800,0,0,0,0,0,0,0,0,B
560676,2567,2730,2984,2975,2796,0,0,0,0,0,0,0,0,B
560686,2567,2718,2978,2963,2814,0,0,0,0,0,0,0,0,B
560721,2581,2720,2985,2970,2796,0,0,0,0,0,0,0,0,B
560731,2572,2720,2984,2980,2811,0,0,0,0,0,0,0,0,B
560766,2568,2721,2974,2970,2807,0,0,0,0,0,0,0,0,B
560776,2564,2720,2980,2974,2816,0,0,0,0,0,0,0,0,B
560811,2564,2710,2978,2972,2803,0,0,0,0,0,0,0,0,B
560821,2576,2724,2984,2967,2783,0,0,0,0,0,0,0,0,B
560856,2564,2728,2978,2967,2807,0,0,0,0,0,0,0,0,B
560902,2568,2724,2973,2970,2798,0,0,0,0,0,0,0,0,B
560912,2580,2716,2980,2971,2800,0,0,0,0,0,0,0,0,B
560946,2576,2717,2982,2973,2795,0,0,0,0,0,0,0,0,B
560956,2570,2715,2985,2975,2802,0,0,0,0,0,0,0,0,B
560991,2558,2717,2980,2972,2806,0,0,0,0,0,0,0,0,B
561001,2570,2723,2984,2975,2806,0,0,0,0,0,0,0,0,B
561036,2576,2719,2976,2976,2795,0,0,0,0,0,0,0,0,B
561046,2570,2728,2986,2974,2809,0,0,0,0,0,0,0,0,B
561081,2562,2728,2976,2968,2809,0,0,0,0,0,0,0,0,B
561091,2570,2730,2979,2970,2808,0,0,0,0,0,0,0,0,B
561126,2564,2720,2981,2968,2800,0,0,0,0,0,0,0,0,B
561136,2569,2731,2975,2970,2801,0,0,0,0,0,0,0,0,B
561171,2572,2729,2984,2980,2817,0,0,0,0,0,0,0,0,B
561181,2564,2723,2975,2976,2809,0,0,0,0,0,0,0,0,B
561216,2556,2720,2977,2974,2801,0,0,0,0,0,0,0,0,B
561226,2562,2729,2978,2970,2814,0,0,0,0,0,0,0,0,B
561261,2565,2722,2979,2963,2804,0,0,0,0,0,0,0,0,B
561271,2569,2723,2976,2969,2799,0,0,0,0,0,0,0,0,B
561306,2566,2719,2972,2974,2782,0,0,0,0,0,0,0,0,B
561316,2572,2726,2972,2969,2796,0,0,0,0,0,0,0,0,B
561351,2568,2724,2975,2969,2800,0,0,0,0,0,0,0,0,B
561361,2560,2728,2967,2971,2790,0,0,0,0,0,0,0,0,B
561396,2567,2724,2974,2965,2797,0,0,0,0,0,0,0,0,B
561406,2568,2719,2979,2975,2799,0,0,0,0,0,0,0,0,B
561441,2564,2728,2988,2972,2810,0,0,0,0,0,0,0,0,B
561451,2576,2725,2979,2967,2797,0,0,0,0,0,0,0,0,B
561486,2563,2715,2977,2974,2806,0,0,0,0,0,0,0,0,B
561496,2570,2717,2975,2976,2808,0,0,0,0,0,0,0,0,B
561531,2567,2732,2965,2966,2816,0,0,0,0,0,0,0,0,B
561541,2572,2710,2973,2967,2798,0,0,0,0,0,0,0,0,B
561576,2557,2724,2981,2974,2809,0,0,0,0,0,0,0,0,B
561586,2559,2721,2972,2972,2807,0,0,0,0,0,0,0,0,B
561621,2567,2719,2973,2972,2807,0,0,0,0,0,0,0,0,B
561631,2574,2725,2979,2973,2803,0,0,0,0,0,0,0,0,B
561666,2573,2725,2978,2962,2796,0,0,0,0,0,0,0,0,B
561676,2572,2724,2978,2976,2805,0,0,0,0,0,0,0,0,B
561711,2565,2720,2976,2967,2792,0,0,0,0,0,0,0,0,B
561721,2571,2722,2976,2968,2799,0,0,0,0,0,0,0,0,B
561756,2570,2715,2975,2970,2810,0,0,0,0,0,0,0,0,B
561766,2560,2729,2978,2970,2809,0,0,0,0,0,0,0,0,B
561801,2559,2717,2976,2972,2807,0,0,0,0,0,0,0,0,B
561811,2569,2723,2973,2962,2804,0,0,0,0,0,0,0,0,B
561846,2570,2718,2977,2984,2815,0,0,0,0,0,0,0,0,B
561856,2572,2720,2974,2972,2812,0,0,0,0,0,0,0,0,B
561891,2564,2711,2969,2967,2795,0,0,0,0,0,0,0,0,B
561901,2569,2722,2975,2972,2808,0,0,0,0,0,0,0,0,B
561936,2573,2711,2973,2970,2810,0,0,0,0,0,0,0,0,B
561946,2572,2723,2976,2978,2801,0,0,0,0,0,0,0,0,B
561981,2579,2728,2977,2966,2797,0,0,0,0,0,0,0,0,B
561991,2578,2718,2982,2972,2809,0,0,0,0,0,0,0,0,B
562026,2576,2718,2979,2976,2810,0,0,0,0,0,0,0,0,B
562036,2564,2715,2978,2969,2810,0,0,0,0,0,0,0,0,B
562071,2553,2724,2967,2969,2812,0,0,0,0,0,0,0,0,B
562081,2578,2729,2972,2965,2808,0,0,0,0,0,0,0,0,B
562116,2581,2718,2981,2967,2806,0,0,0,0,0,0,0,0,B
562126,2556,2726,2978,2973,2804,0,0,0,0,0,0,0,0,B
562161,2567,2723,2976,2975,2808,0,0,0,0,0,0,0,0,B
562171,2560,2719,2975,2976,2806,0,0,0,0,0,0,0,0,B
562206,2579,2736,2980,2967,2807,0,0,0,0,0,0,0,0,B
562216,2567,2715,2965,2968,2803,0,0,0,0,0,0,0,0,B
562251,2568,2720,2970,2972,2801,0,0,0,0,0,0,0,0,B
562261,2565,2713,2971,2970,2799,0,0,0,0,0,0,0,0,B
562296,2563,2715,2975,2961,2807,0,0,0,0,0,0,0,0,B
562306,2580,2717,2983,2974,2807,0,0,0,0,0,0,0,0,B
562341,2576,2720,2975,2968,2802,0,0,0,0,0,0,0,0,B
562351,2563,2719,2971,2967,2802,0,0,0,0,0,0,0,0,B
562386,2570,2723,2971,2967,2804,0,0,0,0,0,0,0,0,B
562396,2571,2721,2976,2968,2803,0,0,0,0,0,0,0,0,B
562431,2565,2723,2967,2966,2809,0,0,0,0,0,0,0,0,B
562441,2563,2720,2968,2976,2810,0,0,0,0,0,0,0,0,B
562476,2572,2724,2980,2976,2812,0,0,0,0,0,0,0,0,B
562486,2564,2719,2975,2972,2808,0,0,0,0,0,0,0,0,B
562521,2585,2725,2971,2972,2810,0,0,0,0,0,0,0,0,B
562531,2565,2727,2976,2973,2802,0,0,0,0,0,0,0,0,B
562566,2575,2720,2974,2968,2808,0,0,0,0,0,0,0,0,B
562576,2567,2727,2977,2970,2816,0,0,0,0,0,0,0,0,B
562611,2561,2720,2975,2978,2808,0,0,0,0,0,0,0,0,B
562621,2565,2729,2972,2970,2798,0,0,0,0,0,0,0,0,B
562656,2569,2716,2972,2970,2814,0,0,0,0,0,0,0,0,B
562666,2562,2720,2975,2970,2813,0,0,0,0,0,0,0,0,B
562701,2565,2728,2975,2973,2793,0,0,0,0,0,0,0,0,B
562711,2572,2710,2980,2968,2809,0,0,0,0,0,0,0,0,B
562746,2572,2719,2980,2974,2799,0,0,0,0,0,0,0,0,B
562756,2581,2717,2977,2969,2796,0,0,0,0,0,0,0,0,B
562791,2565,2728,2965,2969,2801,0,0,0,0,0,0,0,0,B
562801,2562,2719,2975,2965,2806,0,0,0,0,0,0,0,0,B
562836,2568,2726,2983,2975,2801,0,0,0,0,0,0,0,0,B
562846,2576,2719,2973,2972,2815,0,0,0,0,0,0,0,0,B
562881,2560,2724,2980,2967,2810,0,0,0,0,0,0,0,0,B
562891,2570,2720,2972,2968,2804,0,0,0,0,0,0,0,0,B
562926,2564,2723,2968,2967,2810,0,0,0,0,0,0,0,0,B
562936,2572,2725,2972,2975,2801,0,0,0,0,0,0,0,0,B
562971,2580,2721,2970,2971,2822,0,0,0,0,0,0,0,0,B
562981,2580,2718,2980,2965,2815,0,0,0,0,0,0,0,0,B
563016,2570,2729,2971,2967,2811,0,0,0,0,0,0,0,0,B
563026,2576,2711,2980,2973,2791,0,0,0,0,0,0,0,0,B
563061,2561,2720,2977,2967,2810,0,0,0,0,0,0,0,0,B
563107,2568,2711,2972,2966,2799,0,0,0,0,0,0,0,0,B
563117,2566,2732,2974,2974,2799,0,0,0,0,0,0,0,0,B
563151,2561,2724,2980,2961,2808,0,0,0,0,0,0,0,0,B
563161,2570,2718,2982,2968,2800,0,0,0,0,0,0,0,0,B
563196,2568,2724,2982,2971,2809,0,0,0,0,0,0,0,0,B
563206,2570,2724,2975,2963,2811,0,0,0,0,0,0,0,0,B
563241,2563,2724,2971,2973,2801,0,0,0,0,0,0,0,0,B
563251,2565,2719,2976,2965,2811,0,0,0,0,0,0,0,0,B
563286,2565,2724,2975,2970,2802,0,0,0,0,0,0,0,0,B
563296,2573,2717,2974,2970,2801,0,0,0,0,0,0,0,0,B
563331,2576,2730,2977,2972,2795,0,0,0,0,0,0,0,0,B
563341,2567,2728,2975,2971,2799,0,0,0,0,0,0,0,0,B
563376,2564,2719,2973,2962,2792,0,0,0,0,0,0,0,0,B
563386,2573,2722,2978,2970,2809,0,0,0,0,0,0,0,0,B
563421,2568,2721,2977,2969,2811,0,0,0,0,0,0,0,0,B
563431,2566,2719,2986,2978,2810,0,0,0,0,0,0,0,0,B
563466,2567,2723,2978,2967,2808,0,0,0,0,0,0,0,0,B
563476,2576,2723,2971,2977,2806,0,0,0,0,0,0,0,0,B
563511,2570,2725,2973,2977,2805,0,0,0,0,0,0,0,0,B
563521,2566,2718,2985,2974,2817,0,0,0,0,0,0,0,0,B
563556,2549,2711,2968,2964,2796,0,0,0,0,0,0,0,0,B
563566,2582,2712,2983,2970,2819,0,0,0,0,0,0,0,0,B
563601,2560,2718,2975,2968,2779,0,0,0,0,0,0,0,0,B
563611,2567,2719,2966,2968,2800,0,0,0,0,0,0,0,0,B
563646,2559,2707,2977,2968,2803,0,0,0,0,0,0,0,0,B
563656,2581,2711,2971,2967,2800,0,0,0,0,0,0,0,0,B
563691,2559,2707,2977,2970,2810,0,0,0,0,0,0,0,0,B
563701,2570,2715,2978,2967,2812,0,0,0,0,0,0,0,0,B
563736,2572,2715,2977,2966,2805,0,0,0,0,0,0,0,0,B
563746,2569,2726,2981,2972,2796,0,0,0,0,0,0,0,0,B
563781,2570,2720,2970,2971,2808,0,0,0,0,0,0,0,0,B
563791,2568,2724,2974,2966,2799,0,0,0,0,0,0,0,0,B
563826,2570,2714,2974,2958,2800,0,0,0,0,0,0,0,0,B
563836,2565,2714,2975,2968,2800,0,0,0,0,0,0,0,0,B
563871,2568,2717,2975,2963,2799,0,0,0,0,0,0,0,0,B
563881,2569,2723,2976,2977,2801,0,0,0,0,0,0,0,0,B
563916,2569,2724,2976,2969,2794,0,0,0,0,0,0,0,0,B
563926,2577,2720,2983,2974,2799,0,0,0,0,0,0,0,0,B
563961,2560,2726,2969,2972,2803,0,0,0,0,0,0,0,0,B
563971,2573,2727,2972,2970,2817,0,0,0,0,0,0,0,0,B
564006,2558,2713,2971,2962,2806,0,0,0,0,0,0,0,0,B
564016,2567,2720,2976,2972,2805,0,0,0,0,0,0,0,0,B
564051,2575,2717,2973,2974,2805,0,0,0,0,0,0,0,0,B
564061,2570,2714,2978,2973,2811,0,0,0,0,0,0,0,0,B
564096,2562,2700,2976,2972,2802,0,0,0,0,0,0,0,0,B
564106,2569,2717,2974,2970,2791,0,0,0,0,0,0,0,0,B
564141,2544,2728,2974,2969,2802,0,0,0,0,0,0,0,0,B
564151,2575,2715,2968,2970,2789,0,0,0,0,0,0,0,0,B
564186,2564,2715,2972,2961,2816,0,0,0,0,0,0,0,0,B
564196,2573,2712,2975,2965,2801,0,0,0,0,0,0,0,0,B
564231,2571,2726,2967,2970,2812,0,0,0,0,0,0,0,0,B
564241,2570,2723,2972,2971,2816,0,0,0,0,0,0,0,0,B
564276,2559,2724,2976,2963,2797,0,0,0,0,0,0,0,0,B
564286,2572,2707,2984,2974,2808,0,0,0,0,0,0,0,0,B
564321,2571,2715,2967,2969,2807,0,0,0,0,0,0,0,0,B
564331,2574,2721,2984,2971,2803,0,0,0,0,0,0,0,0,B
564366,2568,2720,2972,2961,2791,0,0,0,0,0,0,0,0,B
564376,2569,2727,2970,2968,2805,0,0,0,0,0,0,0,0,B
564411,2569,2723,2983,2967,2814,0,0,0,0,0,0,0,0,B
564421,2574,2722,2976,2972,2813,0,0,0,0,0,0,0,0,B
564456,2563,2715,2971,2959,2811,0,0,0,0,0,0,0,0,B
564466,2566,2713,2968,2968,2800,0,0,0,0,0,0,0,0,B
564501,2563,2718,2975,2966,2816,0,0,0,0,0,0,0,0,B
564511,2566,2718,2978,2977,2814,0,0,0,0,0,0,0,0,B
564546,2571,2731,2978,2967,2787,0,0,0,0,0,0,0,0,B
564556,2562,2724,2976,2971,2818,0,0,0,0,0,0,0,0,B
564591,2576,2717,2977,2968,2810,0,0,0,0,0,0,0,0,B
564601,2575,2728,2974,2982,2813,0,0,0,0,0,0,0,0,B
564636,2561,2718,2966,2957,2799,0,0,0,0,0,0,0,0,B
564646,2569,2722,2971,2969,2802,0,0,0,0,0,0,0,0,B
564681,2564,2728,2980,2973,2803,0,0,0,0,0,0,0,0,B
564691,2567,2711,2975,2977,2799,0,0,0,0,0,0,0,0,B
564726,2556,2729,2975,2965,2819,0,0,0,0,0,0,0,0,B
564736,2563,2717,2981,2974,2811,0,0,0,0,0,0,0,0,B
564771,2570,2727,2976,2984,2808,0,0,0,0,0,0,0,0,B
564816,2561,2716,2975,2966,2796,0,0,0,0,0,0,0,0,B
564827,2576,2725,2978,2972,2795,0,0,0,0,0,0,0,0,B
564861,2574,2714,2971,2978,2804,0,0,0,0,0,0,0,0,B
564871,2566,2712,2975,2977,2806,0,0,0,0,0,0,0,0,B
564906,2560,2716,2976,2970,2808,0,0,0,0,0,0,0,0,B
564916,2572,2724,2976,2980,2823,0,0,0,0,0,0,0,0,B
564951,2572,2718,2982,2975,2801,0,0,0,0,0,0,0,0,B
564961,2568,2734,2977,2972,2816,0,0,0,0,0,0,0,0,B
564996,2548,2720,2979,2967,2804,0,0,0,0,0,0,0,0,B
565006,2574,2722,2971,2965,2812,0,0,0,0,0,0,0,0,B
565041,2576,2715,2977,2970,2813,0,0,0,0,0,0,0,0,B
565051,2574,2715,2976,2970,2799,0,0,0,0,0,0,0,0,B
565086,2563,2715,2969,2966,2795,0,0,0,0,0,0,0,0,B
565096,2563,2710,2973,2966,2804,0,0,0,0,0,0,0,0,B
565131,2570,2720,2979,2984,2808,0,0,0,0,0,0,0,0,B
634970,2751,2260,2695,2733,2559,0,0,0,0,0,0,0,0,C
634980,2761,2270,2698,2748,2569,0,0,0,0,0,0,0,0,C
635015,2768,2261,2695,2748,2572,0,0,0,0,0,0,0,0,C
635025,2761,2265,2693,2738,2567,0,0,0,0,0,0,0,0,C
635060,2753,2268,2686,2738,2565,0,0,0,0,0,0,0,0,C
635070,2759,2274,2688,2737,2573,0,0,0,0,0,0,0,0,C
635105,2773,2267,2704,2740,2552,0,0,0,0,0,0,0,0,C
635150,2768,2270,2691,2745,2567,0,0,0,0,0,0,0,0,C
635161,2758,2259,2701,2752,2566,0,0,0,0,0,0,0,0,C
635195,2754,2278,2697,2733,2576,0,0,0,0,0,0,0,0,C
635205,2759,2269,2696,2739,2576,0,0,0,0,0,0,0,0,C
635240,2768,2265,2700,2737,2577,0,0,0,0,0,0,0,0,C
635285,2751,2266,2698,2743,2568,0,0,0,0,0,0,0,0,C
635296,2743,2266,2690,2734,2567,0,0,0,0,0,0,0,0,C
635330,2754,2264,2695,2736,2557,0,0,0,0,0,0,0,0,C
635340,2758,2268,2710,2732,2570,0,0,0,0,0,0,0,0,C
635375,2754,2264,2707,2735,2567,0,0,0,0,0,0,0,0,C
635385,2764,2278,2704,2739,2576,0,0,0,0,0,0,0,0,C
635420,2756,2271,2687,2719,2578,0,0,0,0,0,0,0,0,C
635430,2763,2265,2700,2744,2553,0,0,0,0,0,0,0,0,C
635465,2758,2265,2691,2748,2571,0,0,0,0,0,0,0,0,C
635475,2759,2255,2695,2729,2557,0,0,0,0,0,0,0,0,C
635510,2766,2267,2697,2732,2574,0,0,0,0,0,0,0,0,C
635520,2776,2263,2701,2744,2577,0,0,0,0,0,0,0,0,C
635555,2763,2263,2702,2738,2567,0,0,0,0,0,0,0,0,C
635565,2743,2269,2701,2724,2587,0,0,0,0,0,0,0,0,C
635600,2755,2264,2686,2733,2567,0,0,0,0,0,0,0,0,C
635611,2752,2257,2706,2740,2578,0,0,0,0,0,0,0,0,C
635645,2756,2251,2703,2744,2576,0,0,0,0,0,0,0,0,C
635655,2759,2258,2698,2734,2551,0,0,0,0,0,0,0,0,C
635690,2761,2271,2694,2734,2578,0,0,0,0,0,0,0,0,C
635700,2763,2260,2699,2742,2553,0,0,0,0,0,0,0,0,C
635735,2757,2263,2705,2743,2562,0,0,0,0,0,0,0,0,C
635781,2750,2276,2692,2740,2563,0,0,0,0,0,0,0,0,C
635791,2751,2276,2690,2742,2567,0,0,0,0,0,0,0,0,C
635826,2755,2263,2696,2739,2565,0,0,0,0,0,0,0,0,C
635836,2759,2251,2704,2749,2568,0,0,0,0,0,0,0,0,C
635871,2754,2264,2687,2742,2562,0,0,0,0,0,0,0,0,C
635881,2759,2261,2701,2730,2561,0,0,0,0,0,0,0,0,C
635916,2757,2266,2694,2747,2577,0,0,0,0,0,0,0,0,C
635926,2762,2265,2706,2741,2580,0,0,0,0,0,0,0,0,C
635961,2768,2247,2695,2736,2592,0,0,0,0,0,0,0,0,C
636006,2760,2265,2714,2731,2559,0,0,0,0,0,0,0,0,C
636017,2758,2266,2702,2748,2570,0,0,0,0,0,0,0,0,C
636050,2752,2266,2692,2730,2576,0,0,0,0,0,0,0,0,C
636060,2758,2260,2700,2751,2585,0,0,0,0,0,0,0,0,C
636095,2764,2264,2693,2741,2568,0,0,0,0,0,0,0,0,C
636105,2756,2270,2687,2735,2574,0,0,0,0,0,0,0,0,C
636140,2765,2261,2695,2737,2551,0,0,0,0,0,0,0,0,C
636150,2763,2268,2690,2745,2576,0,0,0,0,0,0,0,0,C
636185,2747,2257,2693,2735,2572,0,0,0,0,0,0,0,0,C
636195,2760,2260,2697,2744,2559,0,0,0,0,0,0,0,0,C
636230,2751,2264,2692,2736,2564,0,0,0,0,0,0,0,0,C
636240,2776,2273,2689,2749,2570,0,0,0,0,0,0,0,0,C
636275,2757,2275,2696,2740,2576,0,0,0,0,0,0,0,0,C
636285,2769,2262,2697,2746,2565,0,0,0,0,0,0,0,0,C
636320,2757,2262,2702,2740,2560,0,0,0,0,0,0,0,0,C
636331,2759,2257,2693,2740,2567,0,0,0,0,0,0,0,0,C
636365,2756,2272,2701,2743,2568,0,0,0,0,0,0,0,0,C
636376,2762,2259,2690,2741,2568,0,0,0,0,0,0,0,0,C
636410,2751,2261,2700,2735,2571,0,0,0,0,0,0,0,0,C
636420,2759,2260,2713,2746,2571,0,0,0,0,0,0,0,0,C
636455,2764,2255,2695,2743,2568,0,0,0,0,0,0,0,0,C
636465,2751,2269,2702,2744,2567,0,0,0,0,0,0,0,0,C
636500,2758,2247,2690,2735,2562,0,0,0,0,0,0,0,0,C
636510,2761,2268,2689,2743,2577,0,0,0,0,0,0,0,0,C
636545,2755,2258,2689,2742,2568,0,0,0,0,0,0,0,0,C
636555,2755,2272,2696,2743,2571,0,0,0,0,0,0,0,0,C
636590,2765,2262,2704,2743,2578,0,0,0,0,0,0,0,0,C
636600,2751,2267,2702,2743,2561,0,0,0,0,0,0,0,0,C
636635,2756,2260,2704,2743,2572,0,0,0,0,0,0,0,0,C
636645,2767,2276,2702,2744,2566,0,0,0,0,0,0,0,0,C
636680,2760,2272,2693,2737,2560,0,0,0,0,0,0,0,0,C
636691,2759,2255,2701,2739,2576,0,0,0,0,0,0,0,0,C
636725,2758,2255,2701,2740,2572,0,0,0,0,0,0,0,0,C
636735,2754,2259,2705,2739,2570,0,0,0,0,0,0,0,0,C
636770,2761,2263,2705,2750,2576,0,0,0,0,0,0,0,0,C
636780,2755,2272,2694,2741,2564,0,0,0,0,0,0,0,0,C
636815,2768,2276,2700,2733,2577,0,0,0,0,0,0,0,0,C
636825,2763,2263,2689,2735,2562,0,0,0,0,0,0,0,0,C
636860,2764,2271,2685,2729,2577,0,0,0,0,0,0,0,0,C
636870,2761,2266,2703,2744,2569,0,0,0,0,0,0,0,0,C
636905,2759,2281,2701,2738,2581,0,0,0,0,0,0,0,0,C
636915,2769,2282,2710,2748,2558,0,0,0,0,0,0,0,0,C
636950,2758,2259,2691,2752,2563,0,0,0,0,0,0,0,0,C
636960,2756,2265,2699,2733,2552,0,0,0,0,0,0,0,0,C
636995,2760,2262,2687,2741,2571,0,0,0,0,0,0,0,0,C
637005,2755,2258,2696,2745,2567,0,0,0,0,0,0,0,0,C
637040,2766,2260,2714,2736,2564,0,0,0,0,0,0,0,0,C
637050,2768,2258,2694,2739,2575,0,0,0,0,0,0,0,0,C
637085,2751,2270,2706,2735,2575,0,0,0,0,0,0,0,0,C
637095,2762,2262,2704,2736,2568,0,0,0,0,0,0,0,0,C
637130,2758,2264,2696,2746,2560,0,0,0,0,0,0,0,0,C
637140,2761,2263,2695,2739,2566,0,0,0,0,0,0,0,0,C
637175,2764,2258,2700,2733,2554,0,0,0,0,0,0,0,0,C
637185,2757,2268,2698,2737,2573,0,0,0,0,0,0,0,0,C
637220,2757,2260,2700,2741,2581,0,0,0,0,0,0,0,0,C
637230,2757,2269,2695,2741,2576,0,0,0,0,0,0,0,0,C
637265,2761,2277,2705,2737,2576,0,0,0,0,0,0,0,0,C
637275,2759,2267,2698,2735,2573,0,0,0,0,0,0,0,0,C
637310,2762,2267,2703,2736,2576,0,0,0,0,0,0,0,0,C
637320,2760,2268,2692,2748,2581,0,0,0,0,0,0,0,0,C
637355,2759,2266,2701,2735,2574,0,0,0,0,0,0,0,0,C
637365,2769,2261,2693,2741,2569,0,0,0,0,0,0,0,0,C
637400,2760,2267,2699,2729,2571,0,0,0,0,0,0,0,0,C
637410,2768,2266,2700,2738,2558,0,0,0,0,0,0,0,0,C
637445,2755,2273,2691,2734,2553,0,0,0,0,0,0,0,0,C
637455,2760,2260,2702,2745,2543,0,0,0,0,0,0,0,0,C
637490,2750,2263,2696,2738,2573,0,0,0,0,0,0,0,0,C
637500,2762,2259,2694,2733,2556,0,0,0,0,0,0,0,0,C
637535,2755,2266,2702,2735,2576,0,0,0,0,0,0,0,0,C
637545,2758,2266,2696,2738,2573,0,0,0,0,0,0,0,0,C
637580,2760,2268,2694,2740,2567,0,0,0,0,0,0,0,0,C
637590,2762,2267,2701,2739,2578,0,0,0,0,0,0,0,0,C
637625,2768,2258,2708,2738,2567,0,0,0,0,0,0,0,0,C
637635,2762,2260,2699,2738,2567,0,0,0,0,0,0,0,0,C
637670,2753,2275,2705,2739,2571,0,0,0,0,0,0,0,0,C
637680,2759,2268,2701,2740,2571,0,0,0,0,0,0,0,0,C
637715,2764,2265,2703,2741,2563,0,0,0,0,0,0,0,0,C
637725,2756,2258,2704,2742,2571,0,0,0,0,0,0,0,0,C
637760,2768,2251,2703,2752,2561,0,0,0,0,0,0,0,0,C
637770,2773,2260,2703,2741,2564,0,0,0,0,0,0,0,0,C
637805,2766,2271,2696,2735,2563,0,0,0,0,0,0,0,0,C
637815,2761,2269,2703,2739,2578,0,0,0,0,0,0,0,0,C
637850,2768,2270,2690,2741,2578,0,0,0,0,0,0,0,0,C
637895,2759,2259,2695,2751,2561,0,0,0,0,0,0,0,0,C
637906,2758,2272,2702,2739,2571,0,0,0,0,0,0,0,0,C
637940,2767,2272,2701,2742,2571,0,0,0,0,0,0,0,0,C
637950,2763,2261,2690,2735,2571,0,0,0,0,0,0,0,0,C
637985,2758,2267,2696,2738,2567,0,0,0,0,0,0,0,0,C
637995,2761,2274,2689,2740,2566,0,0,0,0,0,0,0,0,C
638030,2762,2258,2696,2742,2559,0,0,0,0,0,0,0,0,C
638040,2751,2274,2699,2750,2571,0,0,0,0,0,0,0,0,C
638075,2765,2261,2693,2743,2563,0,0,0,0,0,0,0,0,C
638085,2767,2272,2696,2742,2582,0,0,0,0,0,0,0,0,C
638120,2762,2269,2691,2747,2569,0,0,0,0,0,0,0,0,C
638166,2762,2276,2701,2741,2563,0,0,0,0,0,0,0,0,C
638177,2764,2262,2690,2735,2582,0,0,0,0,0,0,0,0,C
638210,2757,2268,2704,2744,2573,0,0,0,0,0,0,0,0,C
638220,2772,2269,2700,2738,2578,0,0,0,0,0,0,0,0,C
638255,2760,2246,2694,2736,2575,0,0,0,0,0,0,0,0,C
638265,2760,2267,2704,2739,2564,0,0,0,0,0,0,0,0,C
638300,2772,2257,2706,2742,2571,0,0,0,0,0,0,0,0,C
638310,2761,2257,2701,2737,2576,0,0,0,0,0,0,0,0,C
638345,2764,2264,2699,2744,2572,0,0,0,0,0,0,0,0,C
638355,2762,2265,2703,2747,2575,0,0,0,0,0,0,0,0,C
638390,2764,2280,2699,2742,2570,0,0,0,0,0,0,0,0,C
638400,2763,2272,2701,2728,2585,0,0,0,0,0,0,0,0,C
638435,2755,2244,2696,2724,2559,0,0,0,0,0,0,0,0,C
638445,2763,2273,2699,2728,2570,0,0,0,0,0,0,0,0,C
638480,2764,2264,2695,2735,2571,0,0,0,0,0,0,0,0,C
638490,2764,2270,2704,2727,2583,0,0,0,0,0,0,0,0,C
638525,2754,2263,2695,2741,2567,0,0,0,0,0,0,0,0,C
638535,2761,2264,2699,2739,2558,0,0,0,0,0,0,0,0,C
638570,2760,2263,2703,2748,2575,0,0,0,0,0,0,0,0,C
638580,2758,2271,2687,2738,2586,0,0,0,0,0,0,0,0,C
638615,2746,2268,2698,2744,2561,0,0,0,0,0,0,0,0,C
638625,2757,2261,2707,2741,2572,0,0,0,0,0,0,0,0,C
638660,2764,2267,2704,2744,2560,0,0,0,0,0,0,0,0,C
638670,2759,2263,2700,2731,2571,0,0,0,0,0,0,0,0,C
638705,2760,2248,2697,2736,2567,0,0,0,0,0,0,0,0,C
638715,2761,2260,2705,2749,2562,0,0,0,0,0,0,0,0,C
638750,2768,2267,2702,2730,2565,0,0,0,0,0,0,0,0,C
638795,2764,2268,2698,2739,2569,0,0,0,0,0,0,0,0,C
638806,2750,2274,2709,2752,2562,0,0,0,0,0,0,0,0,C
638840,2763,2270,2703,2739,2553,0,0,0,0,0,0,0,0,C
638850,2758,2255,2706,2736,2569,0,0,0,0,0,0,0,0,C
638885,2758,2264,2704,2744,2578,0,0,0,0,0,0,0,0,C
638895,2750,2260,2701,2739,2568,0,0,0,0,0,0,0,0,C
638930,2750,2269,2696,2745,2560,0,0,0,0,0,0,0,0,C
638940,2760,2267,2698,2741,2576,0,0,0,0,0,0,0,0,C
638975,2757,2268,2699,2730,2570,0,0,0,0,0,0,0,0,C
638985,2766,2259,2697,2739,2565,0,0,0,0,0,0,0,0,C
639020,2755,2271,2694,2745,2567,0,0,0,0,0,0,0,0,C
639030,2755,2262,2698,2735,2565,0,0,0,0,0,0,0,0,C
639065,2753,2270,2693,2736,2559,0,0,0,0,0,0,0,0,C
639075,2765,2261,2701,2739,2565,0,0,0,0,0,0,0,0,C
639110,2759,2259,2696,2743,2562,0,0,0,0,0,0,0,0,C
639120,2763,2269,2695,2744,2560,0,0,0,0,0,0,0,0,C
639155,2764,2266,2702,2734,2567,0,0,0,0,0,0,0,0,C
639165,2760,2256,2699,2742,2571,0,0,0,0,0,0,0,0,C
639200,2756,2270,2701,2740,2578,0,0,0,0,0,0,0,0,C
639210,2756,2255,2706,2744,2567,0,0,0,0,0,0,0,0,C
639245,2760,2265,2692,2729,2576,0,0,0,0,0,0,0,0,C
639255,2761,2274,2701,2751,2569,0,0,0,0,0,0,0,0,C
639290,2760,2264,2709,2742,2580,0,0,0,0,0,0,0,0,C
639300,2761,2268,2702,2735,2577,0,0,0,0,0,0,0,0,C
639335,2754,2256,2694,2740,2562,0,0,0,0,0,0,0,0,C
639345,2762,2263,2705,2739,2550,0,0,0,0,0,0,0,0,C
639380,2765,2252,2699,2732,2568,0,0,0,0,0,0,0,0,C
639390,2752,2269,2710,2744,2573,0,0,0,0,0,0,0,0,C
639425,2762,2261,2697,2738,2573,0,0,0,0,0,0,0,0,C
639435,2762,2256,2700,2738,2552,0,0,0,0,0,0,0,0,C
639470,2762,2270,2690,2745,2580,0,0,0,0,0,0,0,0,C
639480,2758,2272,2702,2735,2569,0,0,0,0,0,0,0,0,C
639515,2755,2276,2699,2739,2565,0,0,0,0,0,0,0,0,C
639525,2760,2265,2695,2742,2574,0,0,0,0,0,0,0,0,C
639560,2761,2266,2704,2738,2569,0,0,0,0,0,0,0,0,C
639570,2765,2276,2695,2742,2570,0,0,0,0,0,0,0,0,C
639605,2765,2255,2698,2743,2577,0,0,0,0,0,0,0,0,C
639650,2764,2271,2708,2728,2575,0,0,0,0,0,0,0,0,C
639660,2768,2267,2706,2743,2570,0,0,0,0,0,0,0,0,C
639695,2756,2263,2702,2732,2569,0,0,0,0,0,0,0,0,C
639706,2762,2276,2712,2735,2578,0,0,0,0,0,0,0,0,C
639740,2763,2263,2702,2740,2559,0,0,0,0,0,0,0,0,C
639786,2745,2256,2699,2741,2564,0,0,0,0,0,0,0,0,C
639830,2743,2268,2702,2739,2582,0,0,0,0,0,0,0,0,C
639841,2759,2257,2696,2743,2575,0,0,0,0,0,0,0,0,C
639875,2760,2258,2697,2744,2564,0,0,0,0,0,0,0,0,C
639885,2763,2269,2700,2748,2573,0,0,0,0,0,0,0,0,C
639920,2764,2284,2706,2743,2566,0,0,0,0,0,0,0,0,C
639930,2758,2268,2689,2734,2566,0,0,0,0,0,0,0,0,C
639965,2764,2260,2683,2740,2563,0,0,0,0,0,0,0,0,C
640010,2753,2255,2701,2734,2592,0,0,0,0,0,0,0,0,C
640020,2755,2276,2708,2753,2581,0,0,0,0,0,0,0,0,C
640055,2758,2262,2706,2744,2577,0,0,0,0,0,0,0,0,C
640065,2753,2261,2701,2743,2574,0,0,0,0,0,0,0,0,C
640100,2768,2270,2696,2739,2577,0,0,0,0,0,0,0,0,C
640110,2774,2259,2707,2747,2589,0,0,0,0,0,0,0,0,C
640145,2767,2266,2703,2735,2576,0,0,0,0,0,0,0,0,C
640155,2770,2265,2708,2756,2572,0,0,0,0,0,0,0,0,C
640190,2760,2254,2705,2746,2577,0,0,0,0,0,0,0,0,C
640200,2760,2262,2700,2743,2583,0,0,0,0,0,0,0,0,C
640235,2756,2263,2701,2735,2574,0,0,0,0,0,0,0,0,C
640245,2759,2264,2704,2739,2573,0,0,0,0,0,0,0,0,C
640280,2770,2259,2704,2735,2561,0,0,0,0,0,0,0,0,C
640290,2756,2264,2704,2731,2591,0,0,0,0,0,0,0,0,C
640325,2754,2255,2707,2734,2567,0,0,0,0,0,0,0,0,C
640335,2761,2260,2705,2743,2572,0,0,0,0,0,0,0,0,C
640370,2758,2265,2697,2745,2573,0,0,0,0,0,0,0,0,C
640380,2760,2261,2704,2737,2578,0,0,0,0,0,0,0,0,C
640415,2741,2253,2702,2740,2568,0,0,0,0,0,0,0,0,C
640425,2759,2270,2705,2742,2576,0,0,0,0,0,0,0,0,C
640460,2764,2257,2689,2756,2588,0,0,0,0,0,0,0,0,C
640470,2751,2263,2695,2746,2586,0,0,0,0,0,0,0,0,C
640505,2751,2260,2699,2737,2584,0,0,0,0,0,0,0,0,C
640515,2760,2269,2707,2748,2576,0,0,0,0,0,0,0,0,C
640550,2762,2263,2701,2750,2591,0,0,0,0,0,0,0,0,C
640560,2770,2268,2709,2747,2577,0,0,0,0,0,0,0,0,C
640640,2761,2263,2695,2739,2562,0,0,0,0,0,0,0,0,C
640650,2755,2264,2697,2744,2596,0,0,0,0,0,0,0,0,C
640685,2764,2265,2697,2740,2576,0,0,0,0,0,0,0,0,C
640695,2756,2286,2706,2744,2575,0,0,0,0,0,0,0,0,C
640730,2759,2253,2708,2729,2594,0,0,0,0,0,0,0,0,C
640740,2768,2271,2708,2740,2597,0,0,0,0,0,0,0,0,C
640820,2748,2264,2700,2735,2613,0,0,0,0,0,0,0,0,C
640830,2755,2272,2701,2754,2619,0,0,0,0,0,0,0,0,C
640865,2755,2272,2691,2744,2614,0,0,0,0,0,0,0,0,C
640875,2763,2263,2699,2738,2618,0,0,0,0,0,0,0,0,C
640910,2762,2260,2699,2738,2650,0,0,0,0,0,0,0,0,C
640920,2759,2268,2712,2751,2628,0,0,0,0,0,0,0,0,C
640955,2762,2271,2702,2738,2617,0,0,0,0,0,0,0,0,C
641045,2762,2263,2695,2742,2625,0,0,0,0,0,0,0,0,C
641055,2762,2269,2706,2745,2618,0,0,0,0,0,0,0,0,C
641090,2747,2266,2703,2743,2619,0,0,0,0,0,0,0,0,C
641100,2745,2270,2700,2750,2626,0,0,0,0,0,0,0,0,C
641135,2761,2264,2700,2752,2622,0,0,0,0,0,0,0,0,C
641145,2758,2270,2702,2747,2606,0,0,0,0,0,0,0,0,C
641180,2762,2271,2708,2742,2615,0,0,0,0,0,0,0,0,C
641190,2763,2262,2702,2743,2619,0,0,0,0,0,0,0,0,C
641225,2750,2274,2690,2738,2614,0,0,0,0,0,0,0,0,C
641235,2748,2277,2696,2740,2624,0,0,0,0,0,0,0,0,C
641270,2751,2269,2699,2757,2630,0,0,0,0,0,0,0,0,C
641280,2764,2256,2699,2752,2633,0,0,0,0,0,0,0,0,C
641315,2765,2251,2687,2751,2639,0,0,0,0,0,0,0,0,C
641325,2765,2270,2702,2759,2636,0,0,0,0,0,0,0,0,C
641360,2752,2259,2687,2756,2612,0,0,0,0,0,0,0,0,C
641370,2761,2271,2704,2761,2624,0,0,0,0,0,0,0,0,C
641405,2753,2263,2710,2751,2629,0,0,0,0,0,0,0,0,C
641415,2759,2275,2707,2753,2629,0,0,0,0,0,0,0,0,C
641450,2753,2272,2704,2754,2633,0,0,0,0,0,0,0,0,C
641460,2755,2262,2707,2749,2632,0,0,0,0,0,0,0,0,C
641496,2762,2263,2704,2743,2634,0,0,0,0,0,0,0,0,C
641540,2767,2259,2704,2754,2632,0,0,0,0,0,0,0,0,C
641551,2749,2272,2708,2752,2628,0,0,0,0,0,0,0,0,C
641585,2745,2258,2706,2754,2628,0,0,0,0,0,0,0,0,C
641631,2754,2265,2702,2748,2629,0,0,0,0,0,0,0,0,C
641641,2757,2261,2710,2753,2616,0,0,0,0,0,0,0,0,C
641675,2756,2264,2710,2751,2627,0,0,0,0,0,0,0,0,C
641685,2754,2272,2698,2757,2631,0,0,0,0,0,0,0,0,C
641720,2755,2275,2708,2754,2631,0,0,0,0,0,0,0,0,C
641730,2756,2284,2702,2742,2638,0,0,0,0,0,0,0,0,C
641765,2759,2279,2713,2756,2634,0,0,0,0,0,0,0,0,C
641775,2768,2259,2716,2752,2640,0,0,0,0,0,0,0,0,C
641810,2759,2267,2696,2759,2630,0,0,0,0,0,0,0,0,C
641855,2749,2270,2707,2753,2631,0,0,0,0,0,0,0,0,C
641865,2754,2262,2704,2753,2625,0,0,0,0,0,0,0,0,C
641900,2756,2267,2699,2744,2631,0,0,0,0,0,0,0,0,C
641910,2760,2272,2703,2742,2625,0,0,0,0,0,0,0,0,C
641945,2756,2263,2703,2747,2636,0,0,0,0,0,0,0,0,C
641955,2763,2270,2703,2756,2638,0,0,0,0,0,0,0,0,C
641990,2760,2263,2699,2756,2633,0,0,0,0,0,0,0,0,C
642000,2753,2276,2714,2772,2632,0,0,0,0,0,0,0,0,C
642035,2764,2263,2701,2744,2641,0,0,0,0,0,0,0,0,C
642045,2755,2272,2700,2747,2615,0,0,0,0,0,0,0,0,C
642080,2761,2262,2707,2750,2632,0,0,0,0,0,0,0,0,C
642090,2752,2266,2702,2745,2637,0,0,0,0,0,0,0,0,C
642125,2756,2269,2700,2751,2635,0,0,0,0,0,0,0,0,C
642135,2761,2271,2709,2754,2631,0,0,0,0,0,0,0,0,C
642170,2753,2266,2708,2753,2646,0,0,0,0,0,0,0,0,C
643025,2759,2268,2700,2753,2639,0,0,0,0,0,0,0,0,C
643035,2749,2272,2690,2756,2617,0,0,0,0,0,0,0,0,C
643115,2755,2265,2708,2751,2629,0,0,0,0,0,0,0,0,C
643125,2763,2276,2712,2755,2632,0,0,0,0,0,0,0,0,C
643160,2755,2268,2695,2737,2622,0,0,0,0,0,0,0,0,C
643170,2760,2266,2713,2758,2631,0,0,0,0,0,0,0,0,C
643205,2766,2269,2711,2747,2624,0,0,0,0,0,0,0,0,C
643251,2762,2274,2709,2758,2627,0,0,0,0,0,0,0,0,C
643261,2756,2271,2704,2751,2638,0,0,0,0,0,0,0,0,C
643295,2767,2267,2727,2749,2644,0,0,0,0,0,0,0,0,C
643305,2754,2269,2699,2739,2615,0,0,0,0,0,0,0,0,C
643340,2752,2262,2700,2742,2616,0,0,0,0,0,0,0,0,C
643350,2763,2265,2712,2746,2626,0,0,0,0,0,0,0,0,C
643385,2755,2276,2708,2753,2636,0,0,0,0,0,0,0,0,C
643395,2771,2280,2708,2752,2655,0,0,0,0,0,0,0,0,C
643430,2761,2262,2712,2744,2629,0,0,0,0,0,0,0,0,C
643440,2768,2265,2703,2752,2632,0,0,0,0,0,0,0,0,C
643475,2748,2267,2710,2751,2639,0,0,0,0,0,0,0,0,C
643485,2762,2267,2704,2751,2632,0,0,0,0,0,0,0,0,C
643520,2763,2259,2701,2746,2629,0,0,0,0,0,0,0,0,C
643530,2762,2260,2704,2743,2615,0,0,0,0,0,0,0,0,C
643565,2764,2262,2710,2754,2635,0,0,0,0,0,0,0,0,C
643575,2768,2270,2695,2749,2635,0,0,0,0,0,0,0,0,C
643610,2763,2269,2695,2743,2634,0,0,0,0,0,0,0,0,C
643620,2758,2263,2701,2748,2632,0,0,0,0,0,0,0,0,C
643655,2755,2257,2702,2748,2640,0,0,0,0,0,0,0,0,C
643665,2754,2253,2700,2757,2628,0,0,0,0,0,0,0,0,C
643745,2761,2263,2704,2743,2623,0,0,0,0,0,0,0,0,C
643755,2761,2278,2705,2738,2622,0,0,0,0,0,0,0,0,C
643791,2758,2259,2707,2744,2624,0,0,0,0,0,0,0,0,C
643835,2770,2259,2708,2749,2634,0,0,0,0,0,0,0,0,C
643845,2764,2268,2702,2746,2640,0,0,0,0,0,0,0,0,C
643880,2761,2265,2705,2748,2632,0,0,0,0,0,0,0,0,C
643890,2747,2264,2703,2753,2631,0,0,0,0,0,0,0,0,C
643925,2769,2262,2712,2751,2632,0,0,0,0,0,0,0,0,C
643935,2758,2267,2698,2750,2631,0,0,0,0,0,0,0,0,C
643970,2756,2263,2695,2746,2632,0,0,0,0,0,0,0,0,C
644015,2761,2263,2708,2757,2631,0,0,0,0,0,0,0,0,C
644025,2754,2276,2708,2751,2635,0,0,0,0,0,0,0,0,C
644060,2756,2275,2706,2752,2643,0,0,0,0,0,0,0,0,C
644070,2764,2263,2708,2748,2633,0,0,0,0,0,0,0,0,C
644105,2763,2264,2703,2758,2626,0,0,0,0,0,0,0,0,C
644115,2768,2262,2708,2745,2629,0,0,0,0,0,0,0,0,C
644150,2761,2269,2700,2760,2641,0,0,0,0,0,0,0,0,C
644160,2770,2279,2703,2751,2632,0,0,0,0,0,0,0,0,C
644195,2749,2263,2708,2748,2645,0,0,0,0,0,0,0,0,C
644205,2765,2270,2708,2752,2634,0,0,0,0,0,0,0,0,C
644240,2751,2255,2703,2751,2632,0,0,0,0,0,0,0,0,C
644250,2764,2266,2707,2750,2635,0,0,0,0,0,0,0,0,C
644285,2767,2272,2700,2750,2639,0,0,0,0,0,0,0,0,C
644295,2745,2268,2700,2756,2636,0,0,0,0,0,0,0,0,C
644330,2759,2263,2707,2752,2629,0,0,0,0,0,0,0,0,C
644340,2763,2264,2712,2758,2643,0,0,0,0,0,0,0,0,C
644375,2758,2251,2703,2745,2637,0,0,0,0,0,0,0,0,C
644385,2751,2269,2703,2752,2619,0,0,0,0,0,0,0,0,C
644420,2758,2260,2699,2749,2615,0,0,0,0,0,0,0,0,C
644430,2750,2271,2710,2754,2634,0,0,0,0,0,0,0,0,C
644510,2750,2259,2692,2753,2636,0,0,0,0,0,0,0,0,C
644520,2757,2264,2711,2756,2636,0,0,0,0,0,0,0,0,C
644555,2772,2265,2707,2761,2626,0,0,0,0,0,0,0,0,C
644565,2759,2268,2708,2750,2630,0,0,0,0,0,0,0,0,C
644600,2764,2247,2700,2743,2640,0,0,0,0,0,0,0,0,C
644610,2760,2273,2706,2751,2633,0,0,0,0,0,0,0,0,C
644645,2764,2279,2720,2752,2644,0,0,0,0,0,0,0,0,C
644655,2760,2268,2717,2767,2625,0,0,0,0,0,0,0,0,C
644690,2753,2264,2695,2747,2633,0,0,0,0,0,0,0,0,C
644700,2769,2266,2711,2738,2620,0,0,0,0,0,0,0,0,C
644735,2767,2272,2709,2753,2624,0,0,0,0,0,0,0,0,C
644745,2754,2270,2709,2751,2627,0,0,0,0,0,0,0,0,C
644780,2763,2263,2695,2746,2629,0,0,0,0,0,0,0,0,C
644790,2760,2261,2704,2751,2634,0,0,0,0,0,0,0,0,C
644825,2763,2260,2712,2751,2624,0,0,0,0,0,0,0,0,C
644835,2755,2256,2706,2748,2640,0,0,0,0,0,0,0,0,C
644870,2750,2250,2708,2739,2610,0,0,0,0,0,0,0,0,C
644880,2747,2258,2703,2754,2623,0,0,0,0,0,0,0,0,C
644915,2759,2274,2712,2753,2632,0,0,0,0,0,0,0,0,C
644925,2759,2271,2708,2756,2625,0,0,0,0,0,0,0,0,C
644960,2768,2265,2702,2756,2610,0,0,0,0,0,0,0,0,C
644970,2754,2272,2706,2756,2631,0,0,0,0,0,0,0,0,C
645005,2769,2271,2704,2758,2630,0,0,0,0,0,0,0,0,C
645015,2758,2270,2700,2746,2625,0,0,0,0,0,0,0,0,C
645050,2753,2268,2696,2763,2624,0,0,0,0,0,0,0,0,C
645060,2766,2270,2703,2759,2632,0,0,0,0,0,0,0,0,C
645095,2759,2257,2702,2753,2628,0,0,0,0,0,0,0,0,C
645105,2755,2271,2710,2762,2621,0,0,0,0,0,0,0,0,C
645140,2750,2266,2697,2750,2642,0,0,0,0,0,0,0,0,C
645150,2764,2267,2695,2748,2639,0,0,0,0,0,0,0,0,C
645185,2756,2272,2707,2749,2640,0,0,0,0,0,0,0,0,C
645195,2760,2275,2708,2747,2640,0,0,0,0,0,0,0,0,C
645230,2750,2253,2704,2760,2640,0,0,0,0,0,0,0,0,C
645240,2762,2261,2700,2757,2641,0,0,0,0,0,0,0,0,C
645275,2776,2255,2708,2740,2643,0,0,0,0,0,0,0,0,C
645285,2752,2262,2706,2753,2627,0,0,0,0,0,0,0,0,C
645321,2760,2261,2702,2743,2623,0,0,0,0,0,0,0,0,C
645331,2762,2269,2704,2748,2641,0,0,0,0,0,0,0,0,C
645365,2758,2267,2699,2754,2627,0,0,0,0,0,0,0,0,C
645375,2751,2261,2704,2759,2637,0,0,0,0,0,0,0,0,C
645410,2749,2264,2707,2750,2624,0,0,0,0,0,0,0,0,C
645420,2753,2268,2703,2750,2631,0,0,0,0,0,0,0,0,C
645455,2764,2276,2710,2753,2633,0,0,0,0,0,0,0,0,C
645465,2752,2275,2699,2753,2631,0,0,0,0,0,0,0,0,C
645500,2758,2271,2703,2748,2629,0,0,0,0,0,0,0,0,C
645546,2760,2266,2712,2747,2626,0,0,0,0,0,0,0,0,C
645556,2765,2264,2700,2750,2637,0,0,0,0,0,0,0,0,C
645590,2760,2259,2691,2747,2618,0,0,0,0,0,0,0,0,C
645600,2765,2260,2706,2756,2639,0,0,0,0,0,0,0,0,C
645635,2762,2263,2706,2747,2638,0,0,0,0,0,0,0,0,C
645645,2771,2276,2711,2752,2629,0,0,0,0,0,0,0,0,C
645680,2760,2262,2705,2743,2622,0,0,0,0,0,0,0,0,C
645690,2759,2266,2700,2759,2640,0,0,0,0,0,0,0,0,C
645725,2763,2272,2712,2750,2632,0,0,0,0,0,0,0,0,C
645735,2751,2260,2704,2760,2633,0,0,0,0,0,0,0,0,C
645770,2745,2268,2702,2743,2634,0,0,0,0,0,0,0,0,C
645780,2752,2272,2712,2759,2643,0,0,0,0,0,0,0,0,C
645815,2752,2261,2708,2750,2613,0,0,0,0,0,0,0,0,C
645825,2770,2255,2708,2757,2641,0,0,0,0,0,0,0,0,C
645861,2756,2270,2707,2751,2640,0,0,0,0,0,0,0,0,C
645871,2760,2263,2703,2741,2627,0,0,0,0,0,0,0,0,C
645905,2763,2271,2703,2751,2631,0,0,0,0,0,0,0,0,C
645951,2760,2261,2692,2745,2640,0,0,0,0,0,0,0,0,C
645961,2767,2266,2714,2755,2634,0,0,0,0,0,0,0,0,C
645995,2766,2271,2710,2752,2621,0,0,0,0,0,0,0,0,C
646005,2762,2266,2703,2751,2631,0,0,0,0,0,0,0,0,C
646040,2758,2259,2707,2752,2619,0,0,0,0,0,0,0,0,C
646050,2756,2261,2711,2757,2623,0,0,0,0,0,0,0,0,C
646085,2757,2261,2700,2756,2627,0,0,0,0,0,0,0,0,C
646095,2764,2263,2712,2755,2623,0,0,0,0,0,0,0,0,C
646130,2757,2255,2709,2748,2645,0,0,0,0,0,0,0,0,C
646175,2768,2259,2715,2755,2621,0,0,0,0,0,0,0,0,C
646185,2760,2263,2707,2753,2643,0,0,0,0,0,0,0,0,C
646220,2759,2261,2695,2744,2640,0,0,0,0,0,0,0,0,C
646265,2752,2260,2702,2750,2629,0,0,0,0,0,0,0,0,C
646276,2751,2275,2708,2754,2627,0,0,0,0,0,0,0,0,C
646310,2760,2268,2707,2757,2638,0,0,0,0,0,0,0,0,C
646320,2746,2259,2716,2748,2627,0,0,0,0,0,0,0,0,C
646355,2776,2279,2699,2753,2636,0,0,0,0,0,0,0,0,C
646365,2761,2267,2709,2756,2633,0,0,0,0,0,0,0,0,C
646400,2757,2276,2712,2742,2629,0,0,0,0,0,0,0,0,C
646410,2748,2265,2711,2757,2628,0,0,0,0,0,0,0,0,C
646445,2754,2270,2703,2750,2633,0,0,0,0,0,0,0,0,C
646455,2755,2272,2703,2764,2627,0,0,0,0,0,0,0,0,C
646490,2768,2271,2709,2752,2625,0,0,0,0,0,0,0,0,C
646500,2755,2284,2709,2769,2622,0,0,0,0,0,0,0,0,C
646535,2747,2280,2706,2754,2635,0,0,0,0,0,0,0,0,C
646580,2759,2264,2703,2750,2643,0,0,0,0,0,0,0,0,C
646591,2760,2275,2708,2744,2616,0,0,0,0,0,0,0,0,C
646625,2760,2264,2694,2751,2638,0,0,0,0,0,0,0,0,C
646635,2761,2267,2709,2743,2630,0,0,0,0,0,0,0,0,C
646670,2760,2265,2701,2753,2635,0,0,0,0,0,0,0,0,C
646680,2755,2280,2695,2751,2626,0,0,0,0,0,0,0,0,C
646715,2760,2267,2702,2750,2615,0,0,0,0,0,0,0,0,C
646725,2771,2264,2707,2749,2629,0,0,0,0,0,0,0,0,C
646760,2766,2272,2708,2757,2627,0,0,0,0,0,0,0,0,C
646805,2763,2271,2707,2754,2638,0,0,0,0,0,0,0,0,C
646816,2761,2255,2710,2746,2640,0,0,0,0,0,0,0,0,C
646850,2768,2257,2705,2753,2623,0,0,0,0,0,0,0,0,C
646860,2766,2264,2705,2749,2637,0,0,0,0,0,0,0,0,C
646895,2768,2257,2695,2754,2624,0,0,0,0,0,0,0,0,C
646905,2762,2277,2702,2751,2626,0,0,0,0,0,0,0,0,C
646940,2757,2261,2709,2754,2632,0,0,0,0,0,0,0,0,C
646950,2765,2267,2710,2739,2641,0,0,0,0,0,0,0,0,C
646985,2764,2278,2716,2753,2634,0,0,0,0,0,0,0,0,C
646995,2757,2270,2702,2754,2632,0,0,0,0,0,0,0,0,C
647030,2752,2265,2693,2750,2650,0,0,0,0,0,0,0,0,C
647040,2743,2272,2697,2749,2624,0,0,0,0,0,0,0,0,C
647075,2759,2268,2692,2757,2610,0,0,0,0,0,0,0,0,C
647085,2762,2263,2703,2744,2632,0,0,0,0,0,0,0,0,C
647120,2769,2249,2701,2751,2639,0,0,0,0,0,0,0,0,C
647130,2773,2265,2709,2757,2642,0,0,0,0,0,0,0,0,C
647165,2754,2273,2707,2764,2640,0,0,0,0,0,0,0,0,C
647175,2766,2276,2711,2751,2643,0,0,0,0,0,0,0,0,C
647210,2770,2271,2709,2756,2637,0,0,0,0,0,0,0,0,C
647256,2758,2271,2711,2755,2628,0,0,0,0,0,0,0,0,C
647266,2758,2252,2705,2760,2626,0,0,0,0,0,0,0,0,C
647300,2759,2255,2704,2751,2638,0,0,0,0,0,0,0,0,C
647345,2752,2274,2708,2752,2632,0,0,0,0,0,0,0,0,C
647356,2764,2272,2706,2758,2629,0,0,0,0,0,0,0,0,C
647390,2774,2246,2709,2755,2623,0,0,0,0,0,0,0,0,C
647400,2764,2263,2707,2752,2643,0,0,0,0,0,0,0,0,C
647435,2749,2270,2694,2748,2614,0,0,0,0,0,0,0,0,C
647480,2758,2258,2716,2747,2636,0,0,0,0,0,0,0,0,C
647491,2767,2273,2709,2764,2621,0,0,0,0,0,0,0,0,C
647525,2751,2272,2704,2744,2620,0,0,0,0,0,0,0,0,C
647535,2768,2258,2707,2748,2632,0,0,0,0,0,0,0,0,C
647615,2759,2268,2705,2747,2648,0,0,0,0,0,0,0,0,C
647625,2761,2260,2706,2752,2647,0,0,0,0,0,0,0,0,C
647660,2755,2265,2716,2757,2641,0,0,0,0,0,0,0,0,C
647670,2759,2267,2703,2753,2612,0,0,0,0,0,0,0,0,C
647705,2771,2272,2695,2754,2643,0,0,0,0,0,0,0,0,C
647715,2753,2263,2698,2757,2640,0,0,0,0,0,0,0,0,C
647750,2761,2262,2702,2762,2644,0,0,0,0,0,0,0,0,C
647796,2754,2261,2709,2742,2629,0,0,0,0,0,0,0,0,C
647806,2754,2276,2710,2755,2641,0,0,0,0,0,0,0,0,C
647840,2755,2284,2710,2745,2629,0,0,0,0,0,0,0,0,C
647885,2762,2272,2713,2754,2607,0,0,0,0,0,0,0,0,C
647895,2764,2259,2706,2741,2636,0,0,0,0,0,0,0,0,C
647930,2758,2264,2687,2754,2621,0,0,0,0,0,0,0,0,C
647940,2768,2275,2710,2751,2624,0,0,0,0,0,0,0,0,C
647975,2750,2258,2700,2739,2628,0,0,0,0,0,0,0,0,C
647985,2762,2253,2709,2747,2623,0,0,0,0,0,0,0,0,C
648020,2760,2263,2702,2744,2625,0,0,0,0,0,0,0,0,C
648030,2768,2260,2709,2752,2644,0,0,0,0,0,0,0,0,C
648065,2757,2267,2712,2758,2636,0,0,0,0,0,0,0,0,C
648075,2751,2255,2714,2750,2641,0,0,0,0,0,0,0,0,C
648110,2763,2271,2713,2751,2619,0,0,0,0,0,0,0,0,C
648121,2761,2271,2703,2743,2637,0,0,0,0,0,0,0,0,C
648155,2748,2254,2692,2752,2617,0,0,0,0,0,0,0,0,C
648165,2755,2273,2707,2753,2628,0,0,0,0,0,0,0,0,C
648200,2752,2271,2689,2747,2620,0,0,0,0,0,0,0,0,C
648210,2772,2271,2706,2752,2625,0,0,0,0,0,0,0,0,C
648245,2755,2272,2712,2751,2627,0,0,0,0,0,0,0,0,C
648255,2749,2266,2720,2752,2640,0,0,0,0,0,0,0,0,C
648290,2748,2263,2693,2746,2640,0,0,0,0,0,0,0,0,C
648300,2765,2274,2705,2752,2640,0,0,0,0,0,0,0,0,C
648335,2760,2280,2713,2756,2627,0,0,0,0,0,0,0,0,C
648380,2757,2267,2710,2755,2637,0,0,0,0,0,0,0,0,C
648390,2763,2267,2705,2753,2628,0,0,0,0,0,0,0,0,C
648425,2740,2259,2689,2742,2612,0,0,0,0,0,0,0,0,C
648435,2768,2276,2710,2750,2632,0,0,0,0,0,0,0,0,C
648470,2759,2269,2703,2751,2639,0,0,0,0,0,0,0,0,C
648480,2759,2272,2706,2752,2628,0,0,0,0,0,0,0,0,C
648515,2762,2275,2704,2752,2642,0,0,0,0,0,0,0,0,C
648525,2759,2263,2710,2743,2626,0,0,0,0,0,0,0,0,C
648561,2757,2264,2708,2755,2643,0,0,0,0,0,0,0,0,C
648571,2764,2274,2694,2750,2620,0,0,0,0,0,0,0,0,C
648606,2764,2275,2708,2762,2639,0,0,0,0,0,0,0,0,C
648616,2753,2276,2708,2760,2617,0,0,0,0,0,0,0,0,C
648650,2760,2267,2702,2753,2625,0,0,0,0,0,0,0,0,C
648660,2760,2256,2707,2753,2636,0,0,0,0,0,0,0,0,C
648695,2760,2275,2692,2747,2623,0,0,0,0,0,0,0,0,C
648705,2768,2276,2720,2744,2632,0,0,0,0,0,0,0,0,C
648740,2758,2264,2711,2753,2619,0,0,0,0,0,0,0,0,C
648750,2760,2270,2700,2751,2631,0,0,0,0,0,0,0,0,C
648785,2759,2265,2709,2753,2623,0,0,0,0,0,0,0,0,C
648795,2764,2288,2697,2758,2616,0,0,0,0,0,0,0,0,C
648830,2759,2276,2699,2754,2635,0,0,0,0,0,0,0,0,C
648840,2758,2268,2703,2751,2640,0,0,0,0,0,0,0,0,C
648875,2755,2267,2701,2752,2616,0,0,0,0,0,0,0,0,C
648885,2753,2274,2703,2751,2632,0,0,0,0,0,0,0,0,C
648920,2765,2269,2710,2749,2627,0,0,0,0,0,0,0,0,C
648965,2761,2266,2701,2732,2630,0,0,0,0,0,0,0,0,C
648976,2746,2271,2695,2754,2628,0,0,0,0,0,0,0,0,C
649010,2759,2268,2710,2759,2643,0,0,0,0,0,0,0,0,C
649020,2763,2273,2715,2761,2624,0,0,0,0,0,0,0,0,C
649055,2772,2279,2704,2760,2627,0,0,0,0,0,0,0,0,C
649065,2765,2267,2708,2748,2630,0,0,0,0,0,0,0,0,C
649100,2764,2276,2712,2751,2630,0,0,0,0,0,0,0,0,C
649110,2761,2278,2708,2756,2636,0,0,0,0,0,0,0,0,C
649145,2756,2261,2704,2747,2633,0,0,0,0,0,0,0,0,C
649155,2766,2268,2707,2754,2635,0,0,0,0,0,0,0,0,C
649190,2758,2263,2689,2756,2631,0,0,0,0,0,0,0,0,C
649200,2773,2262,2716,2746,2633,0,0,0,0,0,0,0,0,C
649235,2757,2271,2702,2752,2620,0,0,0,0,0,0,0,0,C
649245,2755,2272,2699,2757,2628,0,0,0,0,0,0,0,0,C
649280,2763,2272,2705,2758,2624,0,0,0,0,0,0,0,0,C
649290,2759,2272,2700,2752,2625,0,0,0,0,0,0,0,0,C
649325,2751,2266,2706,2747,2621,0,0,0,0,0,0,0,0,C
649335,2764,2278,2714,2755,2636,0,0,0,0,0,0,0,0,C
649370,2757,2271,2711,2757,2639,0,0,0,0,0,0,0,0,C
649416,2754,2268,2712,2748,2640,0,0,0,0,0,0,0,0,C
649426,2762,2272,2705,2739,2626,0,0,0,0,0,0,0,0,C
649550,2763,2272,2708,2756,2647,0,0,0,0,0,0,0,0,C
649560,2762,2277,2710,2758,2633,0,0,0,0,0,0,0,0,C
649595,2761,2263,2699,2745,2614,0,0,0,0,0,0,0,0,C
649605,2762,2263,2710,2749,2625,0,0,0,0,0,0,0,0,C
649640,2761,2274,2710,2752,2622,0,0,0,0,0,0,0,0,C
649650,2761,2254,2705,2756,2628,0,0,0,0,0,0,0,0,C
649685,2772,2255,2710,2758,2628,0,0,0,0,0,0,0,0,C
649695,2755,2258,2709,2754,2631,0,0,0,0,0,0,0,0,C
649730,2749,2273,2711,2760,2626,0,0,0,0,0,0,0,0,C
649740,2768,2268,2707,2752,2639,0,0,0,0,0,0,0,0,C
649775,2747,2256,2702,2748,2612,0,0,0,0,0,0,0,0,C
649785,2760,2273,2704,2758,2618,0,0,0,0,0,0,0,0,C
649820,2760,2262,2705,2747,2640,0,0,0,0,0,0,0,0,C
649830,2759,2280,2703,2758,2635,0,0,0,0,0,0,0,0,C
649865,2755,2270,2706,2755,2619,0,0,0,0,0,0,0,0,C
649876,2759,2276,2703,2757,2623,0,0,0,0,0,0,0,0,C
649955,2759,2270,2715,2749,2632,0,0,0,0,0,0,0,0,C
649965,2764,2256,2715,2752,2642,0,0,0,0,0,0,0,0,C
650000,2763,2269,2711,2751,2634,0,0,0,0,0,0,0,0,C
650010,2757,2267,2712,2753,2624,0,0,0,0,0,0,0,0,C
650045,2770,2265,2708,2755,2639,0,0,0,0,0,0,0,0,C
650055,2762,2263,2709,2756,2632,0,0,0,0,0,0,0,0,C
650090,2751,2266,2705,2756,2645,0,0,0,0,0,0,0,0,C
650100,2761,2263,2695,2760,2635,0,0,0,0,0,0,0,0,C
650135,2764,2261,2706,2750,2628,0,0,0,0,0,0,0,0,C
650145,2755,2267,2703,2753,2637,0,0,0,0,0,0,0,0,C
650180,2767,2270,2714,2761,2622,0,0,0,0,0,0,0,0,C
650190,2753,2282,2705,2758,2621,0,0,0,0,0,0,0,0,C
650225,2750,2275,2695,2756,2623,0,0,0,0,0,0,0,0,C
650235,2763,2270,2709,2750,2637,0,0,0,0,0,0,0,0,C
650270,2766,2269,2708,2754,2609,0,0,0,0,0,0,0,0,C
650281,2765,2271,2701,2759,2630,0,0,0,0,0,0,0,0,C
650315,2758,2273,2700,2747,2635,0,0,0,0,0,0,0,0,C
650326,2762,2265,2695,2760,2637,0,0,0,0,0,0,0,0,C
650360,2763,2270,2704,2757,2640,0,0,0,0,0,0,0,0,C
650371,2759,2264,2704,2752,2640,0,0,0,0,0,0,0,0,C
650405,2743,2261,2707,2743,2629,0,0,0,0,0,0,0,0,C
650416,2758,2278,2707,2741,2638,0,0,0,0,0,0,0,0,C
650450,2756,2265,2705,2751,2621,0,0,0,0,0,0,0,0,C
732394,2744,2582,2615,2647,2479,0,0,0,0,0,0,0,0,D
732404,2737,2597,2603,2652,2470,0,0,0,0,0,0,0,0,D
732439,2731,2596,2615,2654,2461,0,0,0,0,0,0,0,0,D
732449,2742,2603,2616,2655,2472,0,0,0,0,0,0,0,0,D
732484,2738,2584,2628,2645,2461,0,0,0,0,0,0,0,0,D
732494,2746,2596,2618,2645,2468,0,0,0,0,0,0,0,0,D
732529,2739,2601,2617,2640,2479,0,0,0,0,0,0,0,0,D
732539,2740,2594,2621,2648,2469,0,0,0,0,0,0,0,0,D
732574,2735,2600,2624,2653,2475,0,0,0,0,0,0,0,0,D
732584,2742,2596,2612,2656,2474,0,0,0,0,0,0,0,0,D
732619,2744,2595,2628,2656,2469,0,0,0,0,0,0,0,0,D
732629,2748,2595,2626,2650,2476,0,0,0,0,0,0,0,0,D
732664,2745,2600,2628,2650,2478,0,0,0,0,0,0,0,0,D
732674,2740,2597,2628,2639,2475,0,0,0,0,0,0,0,0,D
732709,2738,2592,2623,2656,2479,0,0,0,0,0,0,0,0,D
732719,2750,2596,2620,2647,2473,0,0,0,0,0,0,0,0,D
732754,2740,2595,2624,2656,2477,0,0,0,0,0,0,0,0,D
732764,2736,2590,2625,2647,2474,0,0,0,0,0,0,0,0,D
732799,2742,2590,2632,2655,2463,0,0,0,0,0,0,0,0,D
732809,2744,2608,2599,2648,2462,0,0,0,0,0,0,0,0,D
732844,2747,2595,2626,2656,2475,0,0,0,0,0,0,0,0,D
732854,2749,2600,2619,2650,2477,0,0,0,0,0,0,0,0,D
732889,2739,2583,2609,2644,2466,0,0,0,0,0,0,0,0,D
732899,2744,2591,2622,2656,2483,0,0,0,0,0,0,0,0,D
732934,2727,2604,2611,2644,2464,0,0,0,0,0,0,0,0,D
732944,2730,2599,2616,2647,2480,0,0,0,0,0,0,0,0,D
732979,2737,2593,2632,2647,2484,0,0,0,0,0,0,0,0,D
732989,2739,2599,2617,2647,2464,0,0,0,0,0,0,0,0,D
733024,2737,2594,2616,2649,2472,0,0,0,0,0,0,0,0,D
733034,2746,2596,2615,2643,2462,0,0,0,0,0,0,0,0,D
733069,2731,2601,2613,2645,2472,0,0,0,0,0,0,0,0,D
733079,2739,2597,2625,2656,2476,0,0,0,0,0,0,0,0,D
733114,2742,2602,2628,2637,2467,0,0,0,0,0,0,0,0,D
733124,2743,2600,2626,2647,2470,0,0,0,0,0,0,0,0,D
733159,2734,2590,2607,2645,2466,0,0,0,0,0,0,0,0,D
733204,2741,2596,2632,2644,2464,0,0,0,0,0,0,0,0,D
733214,2745,2596,2624,2657,2478,0,0,0,0,0,0,0,0,D
733249,2740,2587,2622,2646,2474,0,0,0,0,0,0,0,0,D
733259,2737,2599,2611,2646,2465,0,0,0,0,0,0,0,0,D
733294,2735,2594,2619,2651,2460,0,0,0,0,0,0,0,0,D
733304,2746,2583,2611,2644,2468,0,0,0,0,0,0,0,0,D
733339,2741,2595,2619,2650,2468,0,0,0,0,0,0,0,0,D
733349,2731,2602,2618,2652,2466,0,0,0,0,0,0,0,0,D
733384,2739,2589,2612,2635,2463,0,0,0,0,0,0,0,0,D
733394,2744,2593,2616,2638,2466,0,0,0,0,0,0,0,0,D
733429,2734,2598,2613,2648,2472,0,0,0,0,0,0,0,0,D
733439,2733,2594,2612,2643,2466,0,0,0,0,0,0,0,0,D
733474,2734,2589,2632,2628,2454,0,0,0,0,0,0,0,0,D
733484,2745,2590,2614,2650,2467,0,0,0,0,0,0,0,0,D
733519,2744,2592,2622,2651,2469,0,0,0,0,0,0,0,0,D
733529,2746,2602,2619,2657,2476,0,0,0,0,0,0,0,0,D
733564,2732,2596,2617,2652,2476,0,0,0,0,0,0,0,0,D
733574,2745,2604,2620,2650,2472,0,0,0,0,0,0,0,0,D
733609,2743,2592,2611,2644,2472,0,0,0,0,0,0,0,0,D
733619,2740,2603,2615,2649,2458,0,0,0,0,0,0,0,0,D
733654,2736,2592,2628,2640,2464,0,0,0,0,0,0,0,0,D
733664,2733,2604,2623,2640,2469,0,0,0,0,0,0,0,0,D
733699,2740,2587,2620,2658,2470,0,0,0,0,0,0,0,0,D
733709,2743,2593,2619,2640,2472,0,0,0,0,0,0,0,0,D
733744,2742,2592,2616,2645,2467,0,0,0,0,0,0,0,0,D
733754,2731,2593,2612,2649,2483,0,0,0,0,0,0,0,0,D
733789,2732,2591,2620,2647,2468,0,0,0,0,0,0,0,0,D
733799,2740,2600,2619,2650,2483,0,0,0,0,0,0,0,0,D
733834,2731,2596,2613,2649,2472,0,0,0,0,0,0,0,0,D
733844,2743,2597,2614,2645,2472,0,0,0,0,0,0,0,0,D
733879,2746,2600,2622,2653,2465,0,0,0,0,0,0,0,0,D
733889,2737,2600,2615,2640,2468,0,0,0,0,0,0,0,0,D
733924,2739,2573,2624,2657,2467,0,0,0,0,0,0,0,0,D
733934,2739,2603,2620,2644,2470,0,0,0,0,0,0,0,0,D
733969,2742,2591,2609,2648,2457,0,0,0,0,0,0,0,0,D
733979,2741,2600,2614,2660,2470,0,0,0,0,0,0,0,0,D
734014,2735,2592,2617,2641,2467,0,0,0,0,0,0,0,0,D
734024,2735,2602,2624,2639,2458,0,0,0,0,0,0,0,0,D
734059,2743,2588,2617,2646,2482,0,0,0,0,0,0,0,0,D
734069,2739,2599,2619,2655,2467,0,0,0,0,0,0,0,0,D
734104,2745,2599,2618,2654,2472,0,0,0,0,0,0,0,0,D
734114,2739,2584,2616,2647,2463,0,0,0,0,0,0,0,0,D
734149,2735,2590,2619,2646,2459,0,0,0,0,0,0,0,0,D
734159,2735,2584,2608,2641,2471,0,0,0,0,0,0,0,0,D
734194,2737,2584,2617,2643,2461,0,0,0,0,0,0,0,0,D
734204,2743,2598,2624,2656,2472,0,0,0,0,0,0,0,0,D
734239,2734,2598,2617,2648,2469,0,0,0,0,0,0,0,0,D
734249,2744,2594,2617,2662,2482,0,0,0,0,0,0,0,0,D
734284,2726,2595,2622,2656,2471,0,0,0,0,0,0,0,0,D
734294,2741,2601,2621,2652,2472,0,0,0,0,0,0,0,0,D
734329,2739,2598,2619,2651,2476,0,0,0,0,0,0,0,0,D
734339,2739,2603,2611,2655,2453,0,0,0,0,0,0,0,0,D
734374,2750,2600,2616,2654,2488,0,0,0,0,0,0,0,0,D
734384,2747,2600,2622,2647,2478,0,0,0,0,0,0,0,0,D
734419,2741,2587,2616,2645,2473,0,0,0,0,0,0,0,0,D
734429,2745,2590,2629,2646,2471,0,0,0,0,0,0,0,0,D
734464,2734,2600,2618,2641,2472,0,0,0,0,0,0,0,0,D
734474,2745,2599,2611,2653,2448,0,0,0,0,0,0,0,0,D
734509,2745,2600,2615,2645,2468,0,0,0,0,0,0,0,0,D
734519,2745,2588,2628,2640,2472,0,0,0,0,0,0,0,0,D
734554,2749,2601,2621,2655,2473,0,0,0,0,0,0,0,0,D
734564,2730,2600,2617,2660,2462,0,0,0,0,0,0,0,0,D
734599,2747,2593,2624,2643,2470,0,0,0,0,0,0,0,0,D
734609,2742,2605,2623,2648,2466,0,0,0,0,0,0,0,0,D
734644,2736,2589,2613,2644,2471,0,0,0,0,0,0,0,0,D
734654,2744,2596,2612,2648,2464,0,0,0,0,0,0,0,0,D
734689,2741,2599,2615,2639,2472,0,0,0,0,0,0,0,0,D
734699,2746,2594,2621,2647,2471,0,0,0,0,0,0,0,0,D
734734,2733,2587,2617,2648,2467,0,0,0,0,0,0,0,0,D
734744,2741,2591,2626,2641,2473,0,0,0,0,0,0,0,0,D
734779,2728,2594,2628,2651,2464,0,0,0,0,0,0,0,0,D
734789,2745,2590,2619,2655,2448,0,0,0,0,0,0,0,0,D
734824,2731,2610,2611,2653,2450,0,0,0,0,0,0,0,0,D
734834,2744,2598,2623,2655,2479,0,0,0,0,0,0,0,0,D
734869,2740,2600,2620,2648,2463,0,0,0,0,0,0,0,0,D
734879,2746,2597,2624,2653,2465,0,0,0,0,0,0,0,0,D
734914,2735,2592,2622,2642,2452,0,0,0,0,0,0,0,0,D
734924,2742,2596,2615,2647,2473,0,0,0,0,0,0,0,0,D
734959,2743,2600,2618,2645,2471,0,0,0,0,0,0,0,0,D
735004,2736,2587,2613,2643,2468,0,0,0,0,0,0,0,0,D
735014,2737,2592,2624,2656,2468,0,0,0,0,0,0,0,0,D
735049,2743,2598,2620,2651,2461,0,0,0,0,0,0,0,0,D
735059,2741,2588,2624,2645,2473,0,0,0,0,0,0,0,0,D
735094,2730,2599,2613,2639,2475,0,0,0,0,0,0,0,0,D
735104,2744,2608,2619,2649,2461,0,0,0,0,0,0,0,0,D
735139,2738,2594,2628,2649,2464,0,0,0,0,0,0,0,0,D
735184,2727,2591,2611,2653,2472,0,0,0,0,0,0,0,0,D
735195,2739,2596,2618,2643,2468,0,0,0,0,0,0,0,0,D
735229,2739,2599,2619,2657,2461,0,0,0,0,0,0,0,0,D
735239,2739,2595,2611,2643,2468,0,0,0,0,0,0,0,0,D
735274,2737,2583,2621,2652,2443,0,0,0,0,0,0,0,0,D
735284,2745,2598,2619,2656,2471,0,0,0,0,0,0,0,0,D
735319,2739,2591,2619,2649,2469,0,0,0,0,0,0,0,0,D
735329,2742,2591,2624,2647,2472,0,0,0,0,0,0,0,0,D
735364,2723,2587,2627,2659,2471,0,0,0,0,0,0,0,0,D
735374,2752,2592,2617,2658,2459,0,0,0,0,0,0,0,0,D
735409,2738,2597,2614,2652,2463,0,0,0,0,0,0,0,0,D
735419,2746,2601,2628,2655,2479,0,0,0,0,0,0,0,0,D
735454,2754,2585,2621,2648,2471,0,0,0,0,0,0,0,0,D
735499,2749,2599,2626,2646,2486,0,0,0,0,0,0,0,0,D
735509,2735,2584,2620,2652,2463,0,0,0,0,0,0,0,0,D
735544,2742,2593,2625,2653,2469,0,0,0,0,0,0,0,0,D
735554,2738,2586,2623,2653,2470,0,0,0,0,0,0,0,0,D
735589,2744,2591,2619,2649,2479,0,0,0,0,0,0,0,0,D
735599,2732,2601,2625,2646,2471,0,0,0,0,0,0,0,0,D
735634,2738,2595,2620,2655,2473,0,0,0,0,0,0,0,0,D
735644,2748,2598,2613,2649,2460,0,0,0,0,0,0,0,0,D
735679,2735,2605,2613,2646,2473,0,0,0,0,0,0,0,0,D
735689,2734,2592,2627,2646,2472,0,0,0,0,0,0,0,0,D
735724,2744,2601,2622,2647,2470,0,0,0,0,0,0,0,0,D
735734,2742,2599,2616,2656,2471,0,0,0,0,0,0,0,0,D
735769,2742,2608,2624,2652,2471,0,0,0,0,0,0,0,0,D
735779,2742,2600,2623,2653,2470,0,0,0,0,0,0,0,0,D
735814,2741,2579,2615,2652,2472,0,0,0,0,0,0,0,0,D
735824,2739,2612,2619,2648,2475,0,0,0,0,0,0,0,0,D
735859,2745,2601,2621,2657,2474,0,0,0,0,0,0,0,0,D
735869,2744,2605,2631,2638,2466,0,0,0,0,0,0,0,0,D
735904,2746,2601,2623,2645,2483,0,0,0,0,0,0,0,0,D
735914,2745,2602,2629,2655,2473,0,0,0,0,0,0,0,0,D
735949,2734,2591,2626,2650,2469,0,0,0,0,0,0,0,0,D
735959,2738,2590,2623,2663,2485,0,0,0,0,0,0,0,0,D
735994,2744,2600,2618,2649,2452,0,0,0,0,0,0,0,0,D
736039,2735,2595,2620,2650,2479,0,0,0,0,0,0,0,0,D
736049,2737,2593,2616,2642,2460,0,0,0,0,0,0,0,0,D
736084,2734,2597,2627,2652,2474,0,0,0,0,0,0,0,0,D
736094,2733,2594,2623,2637,2445,0,0,0,0,0,0,0,0,D
736129,2744,2605,2621,2651,2471,0,0,0,0,0,0,0,0,D
736139,2738,2593,2616,2651,2482,0,0,0,0,0,0,0,0,D
736174,2740,2594,2624,2650,2467,0,0,0,0,0,0,0,0,D
736184,2743,2591,2626,2647,2458,0,0,0,0,0,0,0,0,D
736219,2740,2594,2613,2656,2473,0,0,0,0,0,0,0,0,D
736229,2744,2596,2624,2654,2468,0,0,0,0,0,0,0,0,D
736264,2744,2596,2632,2657,2471,0,0,0,0,0,0,0,0,D
736274,2743,2594,2617,2645,2464,0,0,0,0,0,0,0,0,D
736309,2735,2596,2620,2653,2469,0,0,0,0,0,0,0,0,D
736319,2744,2596,2617,2655,2464,0,0,0,0,0,0,0,0,D
736354,2739,2596,2619,2647,2465,0,0,0,0,0,0,0,0,D
736364,2747,2607,2623,2650,2476,0,0,0,0,0,0,0,0,D
736399,2750,2595,2621,2655,2471,0,0,0,0,0,0,0,0,D
736409,2739,2588,2629,2659,2468,0,0,0,0,0,0,0,0,D
736444,2744,2600,2614,2647,2461,0,0,0,0,0,0,0,0,D
736454,2733,2608,2624,2646,2474,0,0,0,0,0,0,0,0,D
736489,2733,2591,2621,2650,2484,0,0,0,0,0,0,0,0,D
736499,2735,2601,2615,2650,2474,0,0,0,0,0,0,0,0,D
736534,2740,2600,2619,2660,2473,0,0,0,0,0,0,0,0,D
736544,2735,2600,2624,2652,2470,0,0,0,0,0,0,0,0,D
736579,2741,2593,2621,2647,2464,0,0,0,0,0,0,0,0,D
736589,2733,2587,2622,2647,2473,0,0,0,0,0,0,0,0,D
736624,2740,2595,2618,2655,2465,0,0,0,0,0,0,0,0,D
736634,2741,2591,2624,2658,2471,0,0,0,0,0,0,0,0,D
736669,2733,2592,2619,2648,2462,0,0,0,0,0,0,0,0,D
736679,2740,2600,2625,2654,2468,0,0,0,0,0,0,0,0,D
736714,2732,2599,2625,2655,2477,0,0,0,0,0,0,0,0,D
736724,2740,2598,2618,2653,2470,0,0,0,0,0,0,0,0,D
736759,2740,2585,2629,2651,2476,0,0,0,0,0,0,0,0,D
736769,2747,2595,2628,2649,2474,0,0,0,0,0,0,0,0,D
736804,2740,2595,2613,2631,2477,0,0,0,0,0,0,0,0,D
736814,2743,2587,2618,2654,2472,0,0,0,0,0,0,0,0,D
736849,2735,2596,2620,2644,2483,0,0,0,0,0,0,0,0,D
736859,2734,2604,2630,2648,2470,0,0,0,0,0,0,0,0,D
736894,2741,2599,2625,2648,2461,0,0,0,0,0,0,0,0,D
736904,2735,2595,2618,2653,2480,0,0,0,0,0,0,0,0,D
736939,2736,2612,2615,2651,2466,0,0,0,0,0,0,0,0,D
736949,2747,2600,2619,2645,2457,0,0,0,0,0,0,0,0,D
736984,2742,2594,2616,2658,2475,0,0,0,0,0,0,0,0,D
736994,2748,2587,2623,2649,2469,0,0,0,0,0,0,0,0,D
737029,2738,2585,2620,2648,2467,0,0,0,0,0,0,0,0,D
737039,2731,2593,2607,2644,2473,0,0,0,0,0,0,0,0,D
737074,2741,2600,2620,2646,2464,0,0,0,0,0,0,0,0,D
737084,2741,2598,2618,2650,2453,0,0,0,0,0,0,0,0,D
737119,2756,2597,2624,2653,2475,0,0,0,0,0,0,0,0,D
737129,2736,2604,2634,2652,2483,0,0,0,0,0,0,0,0,D
737164,2731,2594,2612,2656,2463,0,0,0,0,0,0,0,0,D
737174,2736,2597,2612,2647,2475,0,0,0,0,0,0,0,0,D
737209,2743,2587,2613,2656,2482,0,0,0,0,0,0,0,0,D
737219,2739,2593,2609,2650,2470,0,0,0,0,0,0,0,0,D
737254,2744,2608,2619,2658,2466,0,0,0,0,0,0,0,0,D
737264,2738,2593,2615,2654,2475,0,0,0,0,0,0,0,0,D
737299,2747,2596,2619,2651,2470,0,0,0,0,0,0,0,0,D
737309,2739,2606,2625,2647,2469,0,0,0,0,0,0,0,0,D
737344,2739,2594,2626,2653,2483,0,0,0,0,0,0,0,0,D
737354,2744,2586,2624,2646,2480,0,0,0,0,0,0,0,0,D
737389,2731,2599,2624,2654,2472,0,0,0,0,0,0,0,0,D
737399,2737,2596,2607,2647,2490,0,0,0,0,0,0,0,0,D
737434,2732,2600,2623,2647,2465,0,0,0,0,0,0,0,0,D
737444,2744,2597,2618,2656,2471,0,0,0,0,0,0,0,0,D
737479,2744,2592,2625,2653,2470,0,0,0,0,0,0,0,0,D
737489,2741,2583,2621,2656,2477,0,0,0,0,0,0,0,0,D
737524,2742,2590,2616,2641,2467,0,0,0,0,0,0,0,0,D
737534,2742,2589,2620,2652,2478,0,0,0,0,0,0,0,0,D
737569,2737,2595,2610,2651,2467,0,0,0,0,0,0,0,0,D
737579,2738,2597,2623,2656,2472,0,0,0,0,0,0,0,0,D
737614,2732,2600,2630,2656,2482,0,0,0,0,0,0,0,0,D
737624,2741,2590,2631,2647,2481,0,0,0,0,0,0,0,0,D
737659,2733,2599,2628,2639,2477,0,0,0,0,0,0,0,0,D
737669,2744,2600,2625,2655,2472,0,0,0,0,0,0,0,0,D
737704,2752,2595,2620,2644,2473,0,0,0,0,0,0,0,0,D
737714,2734,2593,2614,2656,2480,0,0,0,0,0,0,0,0,D
737749,2731,2597,2632,2648,2474,0,0,0,0,0,0,0,0,D
737759,2733,2583,2624,2652,2464,0,0,0,0,0,0,0,0,D
737794,2744,2594,2621,2649,2439,0,0,0,0,0,0,0,0,D
737804,2736,2604,2626,2639,2469,0,0,0,0,0,0,0,0,D
737839,2732,2588,2608,2639,2459,0,0,0,0,0,0,0,0,D
737849,2723,2583,2621,2639,2455,0,0,0,0,0,0,0,0,D
737884,2734,2600,2625,2655,2469,0,0,0,0,0,0,0,0,D
737929,2735,2601,2615,2647,2472,0,0,0,0,0,0,0,0,D
737939,2731,2592,2615,2650,2473,0,0,0,0,0,0,0,0,D
737974,2736,2604,2627,2656,2480,0,0,0,0,0,0,0,0,D
737984,2746,2602,2621,2659,2463,0,0,0,0,0,0,0,0,D
738019,2742,2595,2621,2645,2463,0,0,0,0,0,0,0,0,D
738029,2738,2599,2622,2644,2466,0,0,0,0,0,0,0,0,D
738064,2738,2593,2615,2639,2473,0,0,0,0,0,0,0,0,D
738074,2740,2592,2617,2650,2462,0,0,0,0,0,0,0,0,D
738109,2727,2584,2616,2651,2464,0,0,0,0,0,0,0,0,D
738119,2742,2598,2607,2646,2467,0,0,0,0,0,0,0,0,D
738154,2734,2597,2630,2657,2480,0,0,0,0,0,0,0,0,D
738164,2741,2605,2612,2654,2488,0,0,0,0,0,0,0,0,D
738199,2739,2591,2619,2649,2461,0,0,0,0,0,0,0,0,D
738244,2734,2587,2617,2654,2472,0,0,0,0,0,0,0,0,D
738255,2744,2593,2624,2661,2468,0,0,0,0,0,0,0,0,D
738289,2729,2583,2605,2642,2461,0,0,0,0,0,0,0,0,D
738299,2735,2596,2624,2650,2481,0,0,0,0,0,0,0,0,D
738334,2738,2605,2615,2660,2464,0,0,0,0,0,0,0,0,D
738344,2733,2591,2618,2655,2471,0,0,0,0,0,0,0,0,D
738379,2734,2593,2617,2657,2459,0,0,0,0,0,0,0,0,D
738389,2742,2588,2625,2657,2467,0,0,0,0,0,0,0,0,D
738424,2731,2591,2624,2639,2470,0,0,0,0,0,0,0,0,D
738434,2742,2595,2612,2656,2480,0,0,0,0,0,0,0,0,D
738469,2742,2593,2619,2649,2475,0,0,0,0,0,0,0,0,D
738479,2741,2596,2620,2650,2466,0,0,0,0,0,0,0,0,D
738514,2734,2604,2617,2665,2468,0,0,0,0,0,0,0,0,D
738524,2744,2589,2626,2648,2470,0,0,0,0,0,0,0,0,D
738559,2735,2593,2624,2647,2478,0,0,0,0,0,0,0,0,D
738569,2743,2595,2629,2656,2468,0,0,0,0,0,0,0,0,D
738604,2728,2597,2614,2642,2472,0,0,0,0,0,0,0,0,D
738614,2735,2593,2625,2650,2461,0,0,0,0,0,0,0,0,D
738649,2740,2601,2612,2650,2468,0,0,0,0,0,0,0,0,D
738659,2744,2596,2629,2651,2448,0,0,0,0,0,0,0,0,D
738694,2736,2592,2620,2655,2471,0,0,0,0,0,0,0,0,D
738704,2745,2597,2630,2656,2476,0,0,0,0,0,0,0,0,D
738739,2736,2600,2621,2643,2471,0,0,0,0,0,0,0,0,D
738784,2723,2590,2618,2656,2467,0,0,0,0,0,0,0,0,D
738794,2732,2592,2606,2656,2453,0,0,0,0,0,0,0,0,D
738829,2731,2590,2619,2648,2465,0,0,0,0,0,0,0,0,D
738839,2739,2597,2615,2648,2462,0,0,0,0,0,0,0,0,D
738874,2739,2598,2623,2660,2463,0,0,0,0,0,0,0,0,D
738884,2740,2599,2624,2644,2467,0,0,0,0,0,0,0,0,D
738919,2738,2599,2623,2652,2475,0,0,0,0,0,0,0,0,D
738964,2740,2595,2609,2659,2464,0,0,0,0,0,0,0,0,D
738974,2733,2592,2625,2657,2472,0,0,0,0,0,0,0,0,D
739009,2726,2596,2618,2641,2468,0,0,0,0,0,0,0,0,D
739019,2744,2596,2623,2652,2472,0,0,0,0,0,0,0,0,D
739054,2742,2592,2622,2640,2480,0,0,0,0,0,0,0,0,D
739064,2748,2602,2624,2651,2468,0,0,0,0,0,0,0,0,D
739099,2733,2584,2621,2649,2480,0,0,0,0,0,0,0,0,D
739109,2732,2590,2614,2649,2475,0,0,0,0,0,0,0,0,D
739144,2744,2597,2615,2647,2467,0,0,0,0,0,0,0,0,D
739154,2741,2595,2627,2651,2471,0,0,0,0,0,0,0,0,D
739189,2736,2595,2613,2645,2465,0,0,0,0,0,0,0,0,D
739199,2733,2591,2614,2658,2466,0,0,0,0,0,0,0,0,D
739234,2736,2596,2626,2648,2467,0,0,0,0,0,0,0,0,D
739244,2738,2602,2609,2647,2470,0,0,0,0,0,0,0,0,D
739279,2735,2593,2616,2644,2467,0,0,0,0,0,0,0,0,D
739289,2740,2592,2615,2651,2481,0,0,0,0,0,0,0,0,D
739324,2729,2599,2619,2647,2459,0,0,0,0,0,0,0,0,D
1288586,2427,1756,2477,2566,2330,0,0,0,0,0,0,0,0,E
1288597,2438,1764,2489,2569,2317,0,0,0,0,0,0,0,0,E
1288631,2434,1768,2496,2572,2334,0,0,0,0,0,0,0,0,E
1288642,2424,1777,2488,2583,2334,0,0,0,0,0,0,0,0,E
1288676,2434,1744,2490,2580,2336,0,0,0,0,0,0,0,0,E
1288687,2445,1737,2482,2564,2310,0,0,0,0,0,0,0,0,E
1288721,2426,1757,2482,2576,2336,0,0,0,0,0,0,0,0,E
1288732,2445,1777,2492,2574,2346,0,0,0,0,0,0,0,0,E
1288766,2427,1762,2492,2565,2327,0,0,0,0,0,0,0,0,E
1288777,2443,1769,2495,2576,2322,0,0,0,0,0,0,0,0,E
1288811,2436,1747,2480,2576,2333,0,0,0,0,0,0,0,0,E
1288822,2436,1761,2487,2572,2336,0,0,0,0,0,0,0,0,E
1288856,2424,1755,2494,2580,2331,0,0,0,0,0,0,0,0,E
1288867,2433,1758,2481,2576,2333,0,0,0,0,0,0,0,0,E
1288901,2436,1768,2489,2568,2336,0,0,0,0,0,0,0,0,E
1288912,2445,1767,2498,2580,2339,0,0,0,0,0,0,0,0,E
1288946,2439,1772,2494,2578,2332,0,0,0,0,0,0,0,0,E
1288957,2449,1765,2485,2584,2331,0,0,0,0,0,0,0,0,E
1288991,2441,1771,2480,2575,2311,0,0,0,0,0,0,0,0,E
1289002,2424,1756,2485,2573,2332,0,0,0,0,0,0,0,0,E
1289036,2438,1769,2490,2566,2333,0,0,0,0,0,0,0,0,E
1289047,2428,1763,2496,2582,2329,0,0,0,0,0,0,0,0,E
1289081,2432,1766,2492,2575,2321,0,0,0,0,0,0,0,0,E
1289092,2435,1776,2496,2576,2340,0,0,0,0,0,0,0,0,E
1289126,2442,1761,2492,2580,2343,0,0,0,0,0,0,0,0,E
1289137,2428,1759,2487,2577,2335,0,0,0,0,0,0,0,0,E
1289171,2439,1763,2496,2571,2326,0,0,0,0,0,0,0,0,E
1289182,2439,1766,2486,2578,2341,0,0,0,0,0,0,0,0,E
1289216,2433,1758,2482,2574,2325,0,0,0,0,0,0,0,0,E
1289227,2435,1748,2491,2577,2332,0,0,0,0,0,0,0,0,E
1289261,2437,1760,2501,2568,2336,0,0,0,0,0,0,0,0,E
1289272,2437,1758,2483,2579,2332,0,0,0,0,0,0,0,0,E
1289306,2445,1772,2485,2579,2343,0,0,0,0,0,0,0,0,E
1289317,2444,1760,2482,2574,2333,0,0,0,0,0,0,0,0,E
1289351,2445,1759,2500,2572,2324,0,0,0,0,0,0,0,0,E
1289362,2440,1782,2487,2567,2340,0,0,0,0,0,0,0,0,E
1289397,2434,1772,2480,2570,2328,0,0,0,0,0,0,0,0,E
1289407,2439,1758,2487,2568,2319,0,0,0,0,0,0,0,0,E
1289441,2450,1747,2494,2580,2326,0,0,0,0,0,0,0,0,E
1289452,2439,1780,2481,2578,2336,0,0,0,0,0,0,0,0,E
1289486,2431,1771,2492,2582,2333,0,0,0,0,0,0,0,0,E
1289497,2452,1766,2494,2586,2336,0,0,0,0,0,0,0,0,E
1289531,2447,1756,2497,2576,2330,0,0,0,0,0,0,0,0,E
1289542,2433,1755,2483,2574,2335,0,0,0,0,0,0,0,0,E
1289576,2445,1776,2483,2579,2330,0,0,0,0,0,0,0,0,E
1289621,2435,1761,2481,2571,2327,0,0,0,0,0,0,0,0,E
1289632,2434,1772,2473,2578,2316,0,0,0,0,0,0,0,0,E
1289666,2441,1759,2492,2574,2334,0,0,0,0,0,0,0,0,E
1289677,2449,1762,2503,2575,2327,0,0,0,0,0,0,0,0,E
1289711,2440,1751,2497,2558,2328,0,0,0,0,0,0,0,0,E
1289722,2438,1764,2485,2569,2319,0,0,0,0,0,0,0,0,E
1289756,2454,1751,2492,2575,2322,0,0,0,0,0,0,0,0,E
1289767,2440,1764,2480,2576,2332,0,0,0,0,0,0,0,0,E
1289801,2437,1768,2491,2584,2343,0,0,0,0,0,0,0,0,E
1289812,2452,1764,2492,2566,2336,0,0,0,0,0,0,0,0,E
1289846,2450,1767,2479,2569,2343,0,0,0,0,0,0,0,0,E
1289857,2447,1777,2485,2564,2320,0,0,0,0,0,0,0,0,E
1289891,2433,1760,2488,2572,2332,0,0,0,0,0,0,0,0,E
1289937,2439,1747,2490,2578,2346,0,0,0,0,0,0,0,0,E
1289948,2445,1766,2500,2582,2328,0,0,0,0,0,0,0,0,E
1289981,2449,1763,2487,2581,2314,0,0,0,0,0,0,0,0,E
1289992,2452,1751,2489,2576,2328,0,0,0,0,0,0,0,0,E
1290026,2449,1772,2490,2577,2340,0,0,0,0,0,0,0,0,E
1290037,2452,1775,2491,2573,2341,0,0,0,0,0,0,0,0,E
1290071,2445,1780,2497,2572,2334,0,0,0,0,0,0,0,0,E
1290082,2439,1767,2483,2582,2334,0,0,0,0,0,0,0,0,E
1290116,2446,1765,2485,2575,2328,0,0,0,0,0,0,0,0,E
1290127,2436,1755,2485,2571,2336,0,0,0,0,0,0,0,0,E
1290161,2431,1780,2498,2575,2347,0,0,0,0,0,0,0,0,E
1290172,2446,1772,2497,2574,2323,0,0,0,0,0,0,0,0,E
1290206,2446,1771,2485,2569,2348,0,0,0,0,0,0,0,0,E
1290217,2440,1760,2496,2568,2319,0,0,0,0,0,0,0,0,E
1290251,2447,1774,2487,2575,2324,0,0,0,0,0,0,0,0,E
1290262,2442,1759,2494,2567,2327,0,0,0,0,0,0,0,0,E
1290296,2428,1769,2487,2584,2324,0,0,0,0,0,0,0,0,E
1290307,2447,1772,2484,2573,2338,0,0,0,0,0,0,0,0,E
1290341,2438,1773,2486,2574,2318,0,0,0,0,0,0,0,0,E
1290352,2453,1760,2478,2575,2324,0,0,0,0,0,0,0,0,E
1290386,2446,1770,2490,2568,2327,0,0,0,0,0,0,0,0,E
1290397,2441,1776,2498,2559,2318,0,0,0,0,0,0,0,0,E
1290476,2446,1770,2484,2571,2318,0,0,0,0,0,0,0,0,E
1290487,2451,1765,2493,2567,2329,0,0,0,0,0,0,0,0,E
1290521,2446,1773,2484,2571,2330,0,0,0,0,0,0,0,0,E
1290532,2445,1774,2494,2585,2329,0,0,0,0,0,0,0,0,E
1290566,2453,1768,2479,2570,2329,0,0,0,0,0,0,0,0,E
1290577,2433,1759,2481,2567,2331,0,0,0,0,0,0,0,0,E
1290611,2443,1781,2496,2580,2333,0,0,0,0,0,0,0,0,E
1290622,2442,1765,2491,2573,2327,0,0,0,0,0,0,0,0,E
1290656,2448,1766,2492,2569,2324,0,0,0,0,0,0,0,0,E
1290667,2445,1759,2487,2584,2333,0,0,0,0,0,0,0,0,E
1290701,2431,1772,2490,2566,2315,0,0,0,0,0,0,0,0,E
1290712,2441,1758,2481,2576,2325,0,0,0,0,0,0,0,0,E
1290746,2448,1771,2496,2584,2334,0,0,0,0,0,0,0,0,E
1290757,2446,1769,2484,2572,2338,0,0,0,0,0,0,0,0,E
1290791,2448,1772,2495,2580,2323,0,0,0,0,0,0,0,0,E
1290802,2456,1773,2489,2571,2324,0,0,0,0,0,0,0,0,E
1290836,2451,1768,2484,2577,2320,0,0,0,0,0,0,0,0,E
1290882,2454,1760,2492,2576,2323,0,0,0,0,0,0,0,0,E
1290892,2439,1769,2488,2570,2316,0,0,0,0,0,0,0,0,E
1290927,2440,1767,2476,2571,2328,0,0,0,0,0,0,0,0,E
1290937,2450,1777,2497,2586,2321,0,0,0,0,0,0,0,0,E
1290971,2453,1768,2496,2573,2305,0,0,0,0,0,0,0,0,E
1290982,2452,1776,2498,2573,2335,0,0,0,0,0,0,0,0,E
1291016,2446,1779,2487,2578,2322,0,0,0,0,0,0,0,0,E
1291027,2450,1766,2488,2580,2324,0,0,0,0,0,0,0,0,E
1291061,2445,1764,2496,2575,2322,0,0,0,0,0,0,0,0,E
1291072,2447,1767,2487,2571,2327,0,0,0,0,0,0,0,0,E
1291106,2445,1766,2489,2577,2338,0,0,0,0,0,0,0,0,E
1291117,2443,1766,2489,2578,2314,0,0,0,0,0,0,0,0,E
1291151,2448,1768,2484,2576,2324,0,0,0,0,0,0,0,0,E
1291162,2452,1778,2496,2573,2347,0,0,0,0,0,0,0,0,E
1291196,2447,1750,2490,2569,2330,0,0,0,0,0,0,0,0,E
1291207,2449,1765,2508,2579,2322,0,0,0,0,0,0,0,0,E
1291241,2445,1772,2483,2567,2329,0,0,0,0,0,0,0,0,E
1291252,2447,1765,2498,2578,2334,0,0,0,0,0,0,0,0,E
1291286,2456,1776,2485,2564,2312,0,0,0,0,0,0,0,0,E
1291297,2450,1754,2489,2584,2334,0,0,0,0,0,0,0,0,E
1291331,2439,1766,2498,2583,2331,0,0,0,0,0,0,0,0,E
1291342,2454,1765,2481,2570,2330,0,0,0,0,0,0,0,0,E
1291376,2450,1768,2487,2574,2319,0,0,0,0,0,0,0,0,E
1291387,2453,1770,2493,2580,2329,0,0,0,0,0,0,0,0,E
1291421,2437,1761,2478,2572,2331,0,0,0,0,0,0,0,0,E
1291432,2441,1769,2494,2571,2341,0,0,0,0,0,0,0,0,E
1291466,2441,1767,2494,2572,2320,0,0,0,0,0,0,0,0,E
1291477,2443,1772,2489,2576,2327,0,0,0,0,0,0,0,0,E
1291512,2447,1759,2491,2584,2323,0,0,0,0,0,0,0,0,E
1291522,2447,1768,2494,2582,2315,0,0,0,0,0,0,0,0,E
1291556,2451,1777,2481,2565,2326,0,0,0,0,0,0,0,0,E
1291567,2458,1767,2501,2581,2325,0,0,0,0,0,0,0,0,E
1291601,2445,1766,2497,2579,2326,0,0,0,0,0,0,0,0,E
1291612,2447,1759,2502,2568,2335,0,0,0,0,0,0,0,0,E
1291646,2445,1779,2491,2571,2329,0,0,0,0,0,0,0,0,E
1291657,2457,1773,2485,2577,2323,0,0,0,0,0,0,0,0,E
1291691,2449,1770,2502,2572,2333,0,0,0,0,0,0,0,0,E
1291702,2448,1771,2504,2576,2333,0,0,0,0,0,0,0,0,E
1291736,2452,1767,2488,2576,2336,0,0,0,0,0,0,0,0,E
1291747,2449,1765,2500,2575,2326,0,0,0,0,0,0,0,0,E
1291781,2440,1760,2495,2567,2330,0,0,0,0,0,0,0,0,E
1291792,2446,1750,2493,2578,2344,0,0,0,0,0,0,0,0,E
1291826,2432,1759,2494,2576,2326,0,0,0,0,0,0,0,0,E
1291837,2438,1770,2483,2577,2328,0,0,0,0,0,0,0,0,E
1291871,2443,1763,2489,2580,2338,0,0,0,0,0,0,0,0,E
1291916,2446,1770,2488,2570,2318,0,0,0,0,0,0,0,0,E
1291927,2452,1765,2490,2580,2332,0,0,0,0,0,0,0,0,E
1291961,2445,1776,2492,2580,2327,0,0,0,0,0,0,0,0,E
1291972,2450,1774,2496,2576,2336,0,0,0,0,0,0,0,0,E
1292006,2460,1757,2500,2571,2345,0,0,0,0,0,0,0,0,E
1292017,2455,1776,2497,2578,2336,0,0,0,0,0,0,0,0,E
1292051,2452,1778,2479,2574,2336,0,0,0,0,0,0,0,0,E
1292062,2460,1765,2500,2580,2344,0,0,0,0,0,0,0,0,E
1292096,2449,1763,2494,2567,2326,0,0,0,0,0,0,0,0,E
1292107,2453,1778,2499,2581,2336,0,0,0,0,0,0,0,0,E
1292141,2447,1763,2490,2572,2338,0,0,0,0,0,0,0,0,E
1292152,2445,1752,2504,2579,2318,0,0,0,0,0,0,0,0,E
1292186,2450,1769,2498,2573,2336,0,0,0,0,0,0,0,0,E
1292232,2450,1772,2485,2566,2335,0,0,0,0,0,0,0,0,E
1292242,2446,1772,2493,2569,2334,0,0,0,0,0,0,0,0,E
1292276,2458,1759,2500,2569,2320,0,0,0,0,0,0,0,0,E
1292287,2448,1771,2484,2581,2331,0,0,0,0,0,0,0,0,E
1292321,2447,1774,2487,2579,2334,0,0,0,0,0,0,0,0,E
1292332,2444,1778,2489,2575,2330,0,0,0,0,0,0,0,0,E
1292366,2448,1761,2481,2567,2320,0,0,0,0,0,0,0,0,E
1292377,2443,1771,2496,2577,2315,0,0,0,0,0,0,0,0,E
1292411,2454,1772,2490,2579,2336,0,0,0,0,0,0,0,0,E
1292422,2458,1764,2489,2567,2325,0,0,0,0,0,0,0,0,E
1292456,2436,1769,2485,2579,2340,0,0,0,0,0,0,0,0,E
1292467,2457,1787,2493,2579,2320,0,0,0,0,0,0,0,0,E
1292501,2453,1787,2491,2570,2318,0,0,0,0,0,0,0,0,E
1292512,2449,1763,2488,2571,2330,0,0,0,0,0,0,0,0,E
1292546,2448,1759,2499,2565,2324,0,0,0,0,0,0,0,0,E
1292557,2449,1750,2478,2573,2323,0,0,0,0,0,0,0,0,E
1292591,2456,1766,2498,2571,2323,0,0,0,0,0,0,0,0,E
1292602,2452,1767,2492,2569,2342,0,0,0,0,0,0,0,0,E
1292636,2437,1766,2484,2567,2336,0,0,0,0,0,0,0,0,E
1292647,2446,1776,2497,2575,2330,0,0,0,0,0,0,0,0,E
1292681,2454,1776,2489,2582,2337,0,0,0,0,0,0,0,0,E
1292692,2448,1771,2488,2579,2336,0,0,0,0,0,0,0,0,E
1292726,2446,1763,2486,2577,2332,0,0,0,0,0,0,0,0,E
1292737,2451,1761,2488,2571,2334,0,0,0,0,0,0,0,0,E
1292771,2444,1770,2483,2578,2332,0,0,0,0,0,0,0,0,E
1292782,2456,1770,2499,2565,2338,0,0,0,0,0,0,0,0,E
1292816,2455,1771,2483,2571,2322,0,0,0,0,0,0,0,0,E
1292827,2441,1767,2487,2587,2331,0,0,0,0,0,0,0,0,E
1292861,2448,1775,2495,2571,2340,0,0,0,0,0,0,0,0,E
1292872,2444,1764,2492,2569,2336,0,0,0,0,0,0,0,0,E
1292906,2445,1768,2483,2558,2329,0,0,0,0,0,0,0,0,E
1292917,2452,1753,2496,2574,2336,0,0,0,0,0,0,0,0,E
1292951,2447,1756,2496,2565,2341,0,0,0,0,0,0,0,0,E
1292962,2450,1763,2490,2575,2322,0,0,0,0,0,0,0,0,E
1292996,2440,1766,2484,2573,2317,0,0,0,0,0,0,0,0,E
1293007,2462,1768,2492,2574,2344,0,0,0,0,0,0,0,0,E
1293041,2460,1751,2491,2580,2350,0,0,0,0,0,0,0,0,E
1293052,2453,1751,2506,2575,2305,0,0,0,0,0,0,0,0,E
1293086,2444,1773,2478,2574,2336,0,0,0,0,0,0,0,0,E
1293097,2454,1759,2487,2573,2316,0,0,0,0,0,0,0,0,E
1293131,2451,1781,2495,2579,2336,0,0,0,0,0,0,0,0,E
1293142,2446,1769,2502,2579,2345,0,0,0,0,0,0,0,0,E
1293176,2456,1768,2495,2569,2327,0,0,0,0,0,0,0,0,E
1293187,2454,1769,2497,2571,2340,0,0,0,0,0,0,0,0,E
1293221,2448,1766,2485,2576,2336,0,0,0,0,0,0,0,0,E
1293232,2458,1763,2491,2571,2337,0,0,0,0,0,0,0,0,E
1293266,2453,1776,2496,2565,2331,0,0,0,0,0,0,0,0,E
1293277,2460,1760,2484,2568,2319,0,0,0,0,0,0,0,0,E
1293311,2456,1776,2486,2575,2334,0,0,0,0,0,0,0,0,E
1293322,2457,1768,2483,2567,2321,0,0,0,0,0,0,0,0,E
1293356,2449,1753,2507,2566,2344,0,0,0,0,0,0,0,0,E
1293367,2455,1768,2493,2576,2336,0,0,0,0,0,0,0,0,E
1293401,2460,1743,2498,2573,2335,0,0,0,0,0,0,0,0,E
1293412,2453,1788,2500,2563,2345,0,0,0,0,0,0,0,0,E
1293446,2447,1777,2499,2575,2336,0,0,0,0,0,0,0,0,E
1293457,2443,1768,2488,2575,2330,0,0,0,0,0,0,0,0,E
1293491,2458,1764,2500,2576,2339,0,0,0,0,0,0,0,0,E
1293502,2437,1773,2492,2580,2345,0,0,0,0,0,0,0,0,E
1293536,2462,1774,2492,2579,2319,0,0,0,0,0,0,0,0,E
1293547,2464,1779,2487,2581,2347,0,0,0,0,0,0,0,0,E
1293581,2457,1778,2495,2575,2339,0,0,0,0,0,0,0,0,E
1293592,2443,1775,2501,2580,2336,0,0,0,0,0,0,0,0,E
1293626,2451,1745,2491,2556,2329,0,0,0,0,0,0,0,0,E
1293637,2441,1765,2478,2578,2312,0,0,0,0,0,0,0,0,E
1293671,2452,1763,2477,2573,2320,0,0,0,0,0,0,0,0,E
1293682,2456,1772,2484,2573,2319,0,0,0,0,0,0,0,0,E
1293716,2454,1765,2495,2578,2329,0,0,0,0,0,0,0,0,E
1293727,2442,1765,2487,2569,2324,0,0,0,0,0,0,0,0,E
1293761,2452,1770,2500,2577,2320,0,0,0,0,0,0,0,0,E
1293772,2454,1757,2483,2580,2337,0,0,0,0,0,0,0,0,E
1293806,2447,1770,2497,2573,2337,0,0,0,0,0,0,0,0,E
1293817,2453,1760,2491,2569,2318,0,0,0,0,0,0,0,0,E
1293851,2455,1780,2501,2577,2327,0,0,0,0,0,0,0,0,E
1293862,2437,1766,2491,2575,2334,0,0,0,0,0,0,0,0,E
1293896,2453,1770,2499,2577,2336,0,0,0,0,0,0,0,0,E
1293907,2447,1770,2489,2577,2342,0,0,0,0,0,0,0,0,E
1293941,2444,1784,2512,2571,2329,0,0,0,0,0,0,0,0,E
1293952,2449,1771,2490,2575,2330,0,0,0,0,0,0,0,0,E
1293986,2454,1751,2491,2572,2321,0,0,0,0,0,0,0,0,E
1293997,2454,1759,2479,2582,2331,0,0,0,0,0,0,0,0,E
1294031,2455,1781,2496,2578,2321,0,0,0,0,0,0,0,0,E
1294041,2457,1778,2485,2562,2331,0,0,0,0,0,0,0,0,E
1294078,2466,1774,2475,2568,2328,0,0,0,0,0,0,0,0,E
1294088,2456,1780,2486,2579,2336,0,0,0,0,0,0,0,0,E
1294121,2458,1776,2498,2575,2326,0,0,0,0,0,0,0,0,E
1294132,2459,1771,2495,2588,2337,0,0,0,0,0,0,0,0,E
1294166,2446,1780,2495,2577,2336,0,0,0,0,0,0,0,0,E
1294177,2459,1771,2480,2573,2316,0,0,0,0,0,0,0,0,E
1294211,2436,1766,2499,2573,2336,0,0,0,0,0,0,0,0,E
1294222,2457,1772,2486,2577,2320,0,0,0,0,0,0,0,0,E
1294256,2453,1792,2488,2573,2337,0,0,0,0,0,0,0,0,E
1294267,2457,1768,2498,2579,2343,0,0,0,0,0,0,0,0,E
1294301,2449,1775,2496,2579,2323,0,0,0,0,0,0,0,0,E
1294312,2461,1777,2504,2580,2340,0,0,0,0,0,0,0,0,E
1294346,2459,1776,2491,2584,2334,0,0,0,0,0,0,0,0,E
1294357,2445,1766,2483,2570,2331,0,0,0,0,0,0,0,0,E
1294391,2455,1771,2498,2575,2339,0,0,0,0,0,0,0,0,E
1294402,2451,1745,2501,2577,2324,0,0,0,0,0,0,0,0,E
1294436,2458,1775,2506,2584,2328,0,0,0,0,0,0,0,0,E
1294447,2464,1772,2487,2583,2339,0,0,0,0,0,0,0,0,E
1294481,2460,1767,2500,2585,2339,0,0,0,0,0,0,0,0,E
1294492,2455,1778,2502,2581,2338,0,0,0,0,0,0,0,0,E
1294526,2453,1753,2496,2574,2328,0,0,0,0,0,0,0,0,E
1294537,2459,1776,2503,2580,2356,0,0,0,0,0,0,0,0,E
1294571,2449,1781,2496,2580,2334,0,0,0,0,0,0,0,0,E
1294582,2461,1770,2485,2587,2330,0,0,0,0,0,0,0,0,E
1294616,2450,1777,2497,2575,2335,0,0,0,0,0,0,0,0,E
1294627,2449,1767,2479,2567,2318,0,0,0,0,0,0,0,0,E
1294661,2461,1780,2504,2576,2332,0,0,0,0,0,0,0,0,E
1294707,2455,1773,2481,2571,2329,0,0,0,0,0,0,0,0,E
1294717,2453,1765,2494,2581,2336,0,0,0,0,0,0,0,0,E
1294751,2450,1768,2504,2575,2330,0,0,0,0,0,0,0,0,E
1294762,2458,1764,2501,2581,2327,0,0,0,0,0,0,0,0,E
1294796,2461,1757,2502,2577,2346,0,0,0,0,0,0,0,0,E
1294807,2459,1765,2494,2575,2318,0,0,0,0,0,0,0,0,E
1294841,2465,1779,2498,2572,2339,0,0,0,0,0,0,0,0,E
1294852,2452,1752,2496,2565,2331,0,0,0,0,0,0,0,0,E
1294886,2461,1763,2496,2567,2331,0,0,0,0,0,0,0,0,E
1294897,2461,1772,2497,2578,2327,0,0,0,0,0,0,0,0,E
1294931,2452,1770,2482,2576,2340,0,0,0,0,0,0,0,0,E
1294942,2448,1771,2486,2585,2309,0,0,0,0,0,0,0,0,E
1294976,2448,1768,2496,2574,2336,0,0,0,0,0,0,0,0,E
1294987,2456,1770,2506,2583,2337,0,0,0,0,0,0,0,0,E
1295021,2452,1767,2496,2579,2340,0,0,0,0,0,0,0,0,E
1295032,2467,1776,2497,2580,2330,0,0,0,0,0,0,0,0,E
1295066,2458,1769,2511,2580,2330,0,0,0,0,0,0,0,0,E
1295077,2458,1757,2496,2574,2336,0,0,0,0,0,0,0,0,E
1295111,2453,1770,2495,2579,2342,0,0,0,0,0,0,0,0,E
1295122,2454,1773,2490,2576,2335,0,0,0,0,0,0,0,0,E
1295156,2456,1767,2500,2576,2330,0,0,0,0,0,0,0,0,E
1295167,2461,1769,2495,2576,2350,0,0,0,0,0,0,0,0,E
1295201,2449,1768,2500,2575,2323,0,0,0,0,0,0,0,0,E
1295212,2460,1772,2496,2577,2340,0,0,0,0,0,0,0,0,E
1295246,2459,1774,2502,2585,2327,0,0,0,0,0,0,0,0,E
1295257,2458,1775,2503,2570,2346,0,0,0,0,0,0,0,0,E
1295291,2461,1776,2500,2580,2327,0,0,0,0,0,0,0,0,E
1295302,2455,1775,2498,2576,2326,0,0,0,0,0,0,0,0,E
1295336,2451,1749,2493,2572,2338,0,0,0,0,0,0,0,0,E
1295347,2460,1776,2498,2579,2334,0,0,0,0,0,0,0,0,E
1295381,2462,1774,2495,2574,2330,0,0,0,0,0,0,0,0,E
1295392,2451,1763,2498,2581,2326,0,0,0,0,0,0,0,0,E
1295426,2460,1772,2499,2578,2309,0,0,0,0,0,0,0,0,E
1295437,2462,1780,2503,2576,2348,0,0,0,0,0,0,0,0,E
1295471,2456,1771,2491,2579,2336,0,0,0,0,0,0,0,0,E
1295482,2457,1768,2500,2577,2331,0,0,0,0,0,0,0,0,E
1297856,2453,1766,2490,2575,2319,0,0,0,0,0,0,0,0,E
1297866,2458,1789,2506,2579,2344,0,0,0,0,0,0,0,0,E
1297901,2459,1747,2520,2568,2339,0,0,0,0,0,0,0,0,E
1297911,2470,1768,2508,2574,2323,0,0,0,0,0,0,0,0,E
1297946,2467,1766,2505,2583,2327,0,0,0,0,0,0,0,0,E
1297957,2456,1775,2496,2583,2326,0,0,0,0,0,0,0,0,E
1297991,2449,1776,2494,2566,2335,0,0,0,0,0,0,0,0,E
1298001,2462,1779,2503,2575,2319,0,0,0,0,0,0,0,0,E
1298036,2454,1777,2490,2573,2344,0,0,0,0,0,0,0,0,E
1298046,2467,1775,2496,2587,2337,0,0,0,0,0,0,0,0,E
1298081,2463,1771,2500,2593,2336,0,0,0,0,0,0,0,0,E
1298091,2455,1770,2497,2580,2328,0,0,0,0,0,0,0,0,E
1298126,2465,1771,2495,2573,2345,0,0,0,0,0,0,0,0,E
1298136,2468,1773,2480,2572,2338,0,0,0,0,0,0,0,0,E
1298171,2454,1780,2492,2584,2339,0,0,0,0,0,0,0,0,E
1298181,2461,1784,2495,2577,2319,0,0,0,0,0,0,0,0,E
1298216,2451,1780,2497,2584,2301,0,0,0,0,0,0,0,0,E
1298226,2465,1781,2502,2584,2322,0,0,0,0,0,0,0,0,E
1298261,2464,1775,2487,2571,2340,0,0,0,0,0,0,0,0,E
1298271,2459,1787,2501,2580,2336,0,0,0,0,0,0,0,0,E
1298306,2459,1770,2497,2571,2337,0,0,0,0,0,0,0,0,E
1298316,2464,1774,2485,2576,2330,0,0,0,0,0,0,0,0,E
1298351,2472,1769,2503,2570,2335,0,0,0,0,0,0,0,0,E
1298361,2459,1760,2495,2569,2327,0,0,0,0,0,0,0,0,E
1298396,2461,1773,2508,2563,2359,0,0,0,0,0,0,0,0,E
1298407,2460,1771,2493,2575,2336,0,0,0,0,0,0,0,0,E
1298441,2453,1775,2499,2580,2329,0,0,0,0,0,0,0,0,E
1298451,2460,1775,2509,2579,2346,0,0,0,0,0,0,0,0,E
1298486,2464,1774,2496,2592,2316,0,0,0,0,0,0,0,0,E
1298496,2453,1781,2504,2575,2336,0,0,0,0,0,0,0,0,E
1298531,2444,1775,2496,2581,2337,0,0,0,0,0,0,0,0,E
1298541,2462,1772,2487,2572,2348,0,0,0,0,0,0,0,0,E
1298576,2452,1769,2486,2575,2336,0,0,0,0,0,0,0,0,E
1298586,2466,1795,2489,2589,2338,0,0,0,0,0,0,0,0,E
1298621,2461,1775,2491,2583,2332,0,0,0,0,0,0,0,0,E
1298631,2463,1778,2493,2569,2330,0,0,0,0,0,0,0,0,E
1298666,2451,1773,2479,2581,2322,0,0,0,0,0,0,0,0,E
1298676,2459,1776,2485,2571,2335,0,0,0,0,0,0,0,0,E
1298711,2457,1768,2501,2577,2338,0,0,0,0,0,0,0,0,E
1298721,2459,1776,2498,2579,2320,0,0,0,0,0,0,0,0,E
1298756,2456,1775,2498,2579,2331,0,0,0,0,0,0,0,0,E
1298766,2454,1762,2492,2579,2335,0,0,0,0,0,0,0,0,E
1298801,2463,1766,2504,2573,2339,0,0,0,0,0,0,0,0,E
1298847,2460,1779,2493,2578,2342,0,0,0,0,0,0,0,0,E
1298858,2459,1774,2491,2576,2323,0,0,0,0,0,0,0,0,E
1298891,2456,1776,2496,2568,2328,0,0,0,0,0,0,0,0,E
1298901,2466,1779,2506,2579,2339,0,0,0,0,0,0,0,0,E
1298936,2453,1774,2499,2571,2345,0,0,0,0,0,0,0,0,E
1298946,2454,1779,2498,2588,2339,0,0,0,0,0,0,0,0,E
1298981,2440,1773,2511,2585,2335,0,0,0,0,0,0,0,0,E
1298991,2446,1769,2502,2571,2343,0,0,0,0,0,0,0,0,E
1299026,2443,1775,2502,2575,2331,0,0,0,0,0,0,0,0,E
1299036,2434,1767,2493,2576,2336,0,0,0,0,0,0,0,0,E
1299071,2437,1758,2503,2576,2344,0,0,0,0,0,0,0,0,E
1299081,2441,1775,2490,2586,2342,0,0,0,0,0,0,0,0,E
1299116,2453,1763,2512,2583,2343,0,0,0,0,0,0,0,0,E
1299126,2448,1785,2497,2583,2342,0,0,0,0,0,0,0,0,E
1299161,2444,1774,2499,2586,2339,0,0,0,0,0,0,0,0,E
1299171,2444,1772,2498,2579,2349,0,0,0,0,0,0,0,0,E
1299251,2443,1777,2508,2582,2344,0,0,0,0,0,0,0,0,E
1299297,2455,1780,2494,2580,2356,0,0,0,0,0,0,0,0,E
1299307,2448,1765,2488,2586,2331,0,0,0,0,0,0,0,0,E
1299341,2444,1770,2497,2580,2332,0,0,0,0,0,0,0,0,E
1299351,2452,1772,2500,2581,2334,0,0,0,0,0,0,0,0,E
1299386,2445,1766,2498,2588,2352,0,0,0,0,0,0,0,0,E
1299396,2443,1771,2502,2589,2344,0,0,0,0,0,0,0,0,E
1299431,2456,1756,2491,2580,2347,0,0,0,0,0,0,0,0,E
1299441,2461,1750,2502,2580,2344,0,0,0,0,0,0,0,0,E
1299476,2453,1774,2497,2577,2327,0,0,0,0,0,0,0,0,E
1299486,2449,1786,2505,2578,2364,0,0,0,0,0,0,0,0,E
1299521,2436,1770,2495,2581,2324,0,0,0,0,0,0,0,0,E
1299531,2444,1774,2509,2587,2345,0,0,0,0,0,0,0,0,E
1299566,2447,1776,2487,2579,2338,0,0,0,0,0,0,0,0,E
1299576,2448,1771,2504,2585,2341,0,0,0,0,0,0,0,0,E
1299611,2449,1763,2499,2580,2334,0,0,0,0,0,0,0,0,E
1299621,2452,1774,2504,2583,2345,0,0,0,0,0,0,0,0,E
1299656,2442,1781,2495,2586,2345,0,0,0,0,0,0,0,0,E
1299666,2454,1777,2497,2579,2355,0,0,0,0,0,0,0,0,E
1299701,2455,1769,2497,2579,2325,0,0,0,0,0,0,0,0,E
1299711,2439,1770,2501,2573,2342,0,0,0,0,0,0,0,0,E
1299746,2452,1776,2504,2584,2346,0,0,0,0,0,0,0,0,E
1299792,2456,1776,2497,2573,2344,0,0,0,0,0,0,0,0,E
1299802,2456,1775,2496,2577,2352,0,0,0,0,0,0,0,0,E
1299836,2460,1782,2496,2578,2344,0,0,0,0,0,0,0,0,E
1299846,2452,1764,2502,2584,2339,0,0,0,0,0,0,0,0,E
1299881,2456,1784,2506,2592,2347,0,0,0,0,0,0,0,0,E
1299891,2463,1782,2505,2589,2338,0,0,0,0,0,0,0,0,E
1299926,2449,1762,2508,2581,2344,0,0,0,0,0,0,0,0,E
1299936,2462,1772,2507,2585,2327,0,0,0,0,0,0,0,0,E
1299971,2459,1776,2494,2573,2326,0,0,0,0,0,0,0,0,E
1299981,2442,1778,2483,2581,2328,0,0,0,0,0,0,0,0,E
1300016,2454,1765,2504,2592,2338,0,0,0,0,0,0,0,0,E
1300026,2458,1775,2489,2579,2334,0,0,0,0,0,0,0,0,E
1300061,2453,1777,2505,2578,2330,0,0,0,0,0,0,0,0,E
1300071,2449,1785,2504,2581,2342,0,0,0,0,0,0,0,0,E
1300106,2466,1784,2512,2580,2333,0,0,0,0,0,0,0,0,E
1300116,2459,1782,2497,2571,2344,0,0,0,0,0,0,0,0,E
1300151,2458,1777,2495,2577,2338,0,0,0,0,0,0,0,0,E
1300161,2449,1772,2502,2567,2329,0,0,0,0,0,0,0,0,E
1300196,2451,1784,2502,2579,2335,0,0,0,0,0,0,0,0,E
1300206,2457,1777,2496,2588,2351,0,0,0,0,0,0,0,0,E
1300241,2465,1777,2511,2581,2341,0,0,0,0,0,0,0,0,E
1300251,2451,1774,2495,2580,2345,0,0,0,0,0,0,0,0,E
1300286,2454,1758,2501,2566,2338,0,0,0,0,0,0,0,0,E
1300296,2458,1780,2498,2575,2335,0,0,0,0,0,0,0,0,E
1300331,2460,1784,2495,2590,2356,0,0,0,0,0,0,0,0,E
1300376,2467,1781,2504,2585,2338,0,0,0,0,0,0,0,0,E
1300386,2464,1792,2497,2574,2353,0,0,0,0,0,0,0,0,E
1300421,2459,1771,2510,2584,2352,0,0,0,0,0,0,0,0,E
1300431,2447,1787,2505,2574,2338,0,0,0,0,0,0,0,0,E
1300466,2447,1767,2495,2581,2325,0,0,0,0,0,0,0,0,E
1300476,2447,1784,2503,2583,2325,0,0,0,0,0,0,0,0,E
1300511,2457,1764,2500,2572,2330,0,0,0,0,0,0,0,0,E
1300556,2453,1775,2487,2576,2344,0,0,0,0,0,0,0,0,E
1300567,2461,1770,2494,2575,2338,0,0,0,0,0,0,0,0,E
1300601,2459,1778,2493,2584,2333,0,0,0,0,0,0,0,0,E
1300611,2459,1765,2502,2575,2334,0,0,0,0,0,0,0,0,E
1300646,2464,1767,2493,2577,2334,0,0,0,0,0,0,0,0,E
1300656,2461,1766,2503,2576,2349,0,0,0,0,0,0,0,0,E
1300691,2455,1785,2501,2593,2329,0,0,0,0,0,0,0,0,E
1300701,2451,1774,2504,2575,2344,0,0,0,0,0,0,0,0,E
1300736,2444,1783,2510,2583,2333,0,0,0,0,0,0,0,0,E
1300746,2463,1769,2501,2584,2344,0,0,0,0,0,0,0,0,E
1300781,2452,1776,2505,2586,2341,0,0,0,0,0,0,0,0,E
1300791,2446,1780,2498,2585,2342,0,0,0,0,0,0,0,0,E
1300826,2458,1772,2483,2575,2330,0,0,0,0,0,0,0,0,E
1300837,2466,1769,2499,2571,2341,0,0,0,0,0,0,0,0,E
1300871,2452,1760,2496,2578,2336,0,0,0,0,0,0,0,0,E
1300881,2453,1768,2498,2580,2349,0,0,0,0,0,0,0,0,E
1300916,2459,1768,2490,2573,2340,0,0,0,0,0,0,0,0,E
1300927,2454,1772,2493,2575,2338,0,0,0,0,0,0,0,0,E
1300961,2465,1769,2498,2572,2336,0,0,0,0,0,0,0,0,E
1300971,2466,1766,2500,2580,2359,0,0,0,0,0,0,0,0,E
1301006,2463,1779,2499,2589,2339,0,0,0,0,0,0,0,0,E
1301016,2460,1775,2495,2578,2329,0,0,0,0,0,0,0,0,E
1301051,2462,1776,2516,2585,2341,0,0,0,0,0,0,0,0,E
1301061,2465,1773,2496,2579,2327,0,0,0,0,0,0,0,0,E
1301096,2443,1772,2489,2572,2332,0,0,0,0,0,0,0,0,E
1301106,2457,1776,2501,2575,2347,0,0,0,0,0,0,0,0,E
1301141,2462,1778,2501,2581,2339,0,0,0,0,0,0,0,0,E
1301151,2467,1790,2504,2587,2340,0,0,0,0,0,0,0,0,E
1301186,2455,1771,2500,2585,2347,0,0,0,0,0,0,0,0,E
1301196,2459,1775,2503,2584,2336,0,0,0,0,0,0,0,0,E
1301231,2459,1772,2509,2586,2346,0,0,0,0,0,0,0,0,E
1301241,2462,1770,2497,2585,2341,0,0,0,0,0,0,0,0,E
1301276,2468,1777,2499,2577,2331,0,0,0,0,0,0,0,0,E
1301286,2468,1789,2504,2590,2344,0,0,0,0,0,0,0,0,E
1301321,2471,1775,2502,2579,2337,0,0,0,0,0,0,0,0,E
1301331,2462,1789,2491,2592,2344,0,0,0,0,0,0,0,0,E
1301366,2466,1775,2499,2578,2344,0,0,0,0,0,0,0,0,E
1301411,2459,1776,2500,2572,2331,0,0,0,0,0,0,0,0,E
1301421,2471,1791,2498,2575,2347,0,0,0,0,0,0,0,0,E
1301456,2459,1780,2494,2571,2344,0,0,0,0,0,0,0,0,E
1301466,2454,1779,2496,2588,2357,0,0,0,0,0,0,0,0,E
1301501,2463,1784,2495,2577,2344,0,0,0,0,0,0,0,0,E
1301511,2458,1767,2499,2581,2343,0,0,0,0,0,0,0,0,E
1301546,2446,1784,2493,2588,2335,0,0,0,0,0,0,0,0,E
1301556,2468,1775,2491,2591,2344,0,0,0,0,0,0,0,0,E
1301591,2456,1777,2504,2581,2336,0,0,0,0,0,0,0,0,E
1301601,2468,1801,2498,2583,2349,0,0,0,0,0,0,0,0,E
1301636,2462,1788,2498,2570,2327,0,0,0,0,0,0,0,0,E
1301646,2455,1786,2504,2587,2339,0,0,0,0,0,0,0,0,E
1301681,2460,1761,2496,2581,2331,0,0,0,0,0,0,0,0,E
1301691,2459,1771,2519,2575,2345,0,0,0,0,0,0,0,0,E
1301726,2459,1784,2503,2587,2365,0,0,0,0,0,0,0,0,E
1301772,2460,1775,2490,2584,2318,0,0,0,0,0,0,0,0,E
1301783,2459,1780,2505,2575,2335,0,0,0,0,0,0,0,0,E
1301816,2461,1782,2498,2572,2346,0,0,0,0,0,0,0,0,E
1301826,2464,1778,2491,2580,2344,0,0,0,0,0,0,0,0,E
1301861,2464,1778,2487,2584,2351,0,0,0,0,0,0,0,0,E
1301871,2464,1784,2500,2587,2351,0,0,0,0,0,0,0,0,E
1301906,2462,1779,2500,2582,2342,0,0,0,0,0,0,0,0,E
1301996,2463,1769,2500,2574,2334,0,0,0,0,0,0,0,0,E
1302006,2464,1782,2499,2583,2325,0,0,0,0,0,0,0,0,E
1302041,2457,1771,2500,2575,2343,0,0,0,0,0,0,0,0,E
1302051,2458,1789,2496,2581,2344,0,0,0,0,0,0,0,0,E
1302086,2459,1773,2497,2575,2334,0,0,0,0,0,0,0,0,E
1302096,2465,1772,2500,2576,2331,0,0,0,0,0,0,0,0,E
1302131,2460,1778,2503,2583,2339,0,0,0,0,0,0,0,0,E
1302141,2463,1781,2496,2574,2342,0,0,0,0,0,0,0,0,E
1302176,2464,1771,2496,2592,2335,0,0,0,0,0,0,0,0,E
1302186,2458,1789,2487,2569,2361,0,0,0,0,0,0,0,0,E
1302221,2475,1791,2486,2586,2358,0,0,0,0,0,0,0,0,E
1302231,2468,1782,2512,2575,2338,0,0,0,0,0,0,0,0,E
1302266,2464,1784,2500,2574,2343,0,0,0,0,0,0,0,0,E
1302276,2464,1801,2487,2576,2341,0,0,0,0,0,0,0,0,E
1302311,2468,1780,2504,2587,2335,0,0,0,0,0,0,0,0,E
1302321,2456,1782,2501,2582,2345,0,0,0,0,0,0,0,0,E
1302356,2457,1787,2497,2571,2339,0,0,0,0,0,0,0,0,E
1302366,2462,1783,2497,2589,2331,0,0,0,0,0,0,0,0,E
1302401,2463,1775,2487,2587,2342,0,0,0,0,0,0,0,0,E
1302411,2467,1792,2507,2573,2337,0,0,0,0,0,0,0,0,E
1302446,2463,1778,2497,2576,2334,0,0,0,0,0,0,0,0,E
1302456,2467,1771,2497,2584,2328,0,0,0,0,0,0,0,0,E
1302491,2456,1771,2500,2575,2334,0,0,0,0,0,0,0,0,E
1302501,2472,1782,2507,2590,2333,0,0,0,0,0,0,0,0,E
1302536,2471,1805,2498,2595,2347,0,0,0,0,0,0,0,0,E
1302546,2452,1776,2491,2584,2344,0,0,0,0,0,0,0,0,E
1302581,2464,1788,2496,2584,2357,0,0,0,0,0,0,0,0,E
1302592,2463,1775,2497,2587,2339,0,0,0,0,0,0,0,0,E
1302626,2464,1782,2505,2584,2337,0,0,0,0,0,0,0,0,E
1302636,2465,1775,2501,2583,2323,0,0,0,0,0,0,0,0,E
1302671,2455,1757,2505,2596,2340,0,0,0,0,0,0,0,0,E
1302681,2461,1772,2494,2584,2355,0,0,0,0,0,0,0,0,E
1302716,2453,1778,2486,2576,2327,0,0,0,0,0,0,0,0,E
1302726,2469,1778,2497,2580,2341,0,0,0,0,0,0,0,0,E
1302761,2463,1784,2511,2579,2329,0,0,0,0,0,0,0,0,E
1302771,2473,1792,2500,2582,2337,0,0,0,0,0,0,0,0,E
1302806,2464,1782,2495,2587,2344,0,0,0,0,0,0,0,0,E
1302816,2472,1773,2501,2578,2329,0,0,0,0,0,0,0,0,E
1302851,2463,1780,2508,2587,2342,0,0,0,0,0,0,0,0,E
1302861,2466,1768,2503,2578,2327,0,0,0,0,0,0,0,0,E
1302896,2463,1778,2497,2588,2338,0,0,0,0,0,0,0,0,E
1302906,2472,1783,2500,2589,2348,0,0,0,0,0,0,0,0,E
1302941,2464,1775,2494,2585,2342,0,0,0,0,0,0,0,0,E
1302951,2459,1793,2498,2581,2348,0,0,0,0,0,0,0,0,E
1302986,2462,1774,2505,2579,2335,0,0,0,0,0,0,0,0,E
1302996,2466,1785,2495,2583,2338,0,0,0,0,0,0,0,0,E
1303031,2463,1780,2512,2577,2346,0,0,0,0,0,0,0,0,E
1303041,2461,1783,2503,2577,2347,0,0,0,0,0,0,0,0,E
1303076,2467,1776,2496,2573,2339,0,0,0,0,0,0,0,0,E
1303122,2467,1798,2502,2584,2325,0,0,0,0,0,0,0,0,E
1303132,2479,1773,2509,2583,2339,0,0,0,0,0,0,0,0,E
1303166,2458,1771,2496,2588,2340,0,0,0,0,0,0,0,0,E
1303176,2466,1782,2504,2572,2348,0,0,0,0,0,0,0,0,E
1303211,2470,1760,2491,2581,2347,0,0,0,0,0,0,0,0,E
1303221,2460,1770,2506,2585,2329,0,0,0,0,0,0,0,0,E
1303256,2461,1779,2496,2586,2338,0,0,0,0,0,0,0,0,E
1303266,2464,1780,2499,2582,2345,0,0,0,0,0,0,0,0,E
1303301,2468,1762,2499,2569,2348,0,0,0,0,0,0,0,0,E
1303311,2466,1783,2487,2583,2329,0,0,0,0,0,0,0,0,E
1303346,2468,1776,2496,2579,2330,0,0,0,0,0,0,0,0,E
1303356,2467,1791,2506,2581,2344,0,0,0,0,0,0,0,0,E
1303391,2465,1769,2494,2574,2328,0,0,0,0,0,0,0,0,E
1303436,2472,1779,2502,2575,2344,0,0,0,0,0,0,0,0,E
1303447,2470,1773,2500,2578,2344,0,0,0,0,0,0,0,0,E
1303481,2461,1787,2504,2585,2336,0,0,0,0,0,0,0,0,E
1303491,2450,1775,2496,2575,2335,0,0,0,0,0,0,0,0,E
1303526,2465,1772,2493,2583,2344,0,0,0,0,0,0,0,0,E
1303536,2473,1780,2498,2596,2342,0,0,0,0,0,0,0,0,E
